"ID","trial","condition","Item","Phrasing","Answer","Question","interro_start","interro_stop","Confidence","ConfidenceRT","polyg_start","polyg_stop","RT"
1,1,"Interrogation","19","Direct","TRUTH","Which MRT station is closest to your house?",493.875555147766,499.541669286555,0.287037037037037,"5.497205173363909",NA,NA,5.66611413878854
1,2,"Interrogation","18","Direct","TRUTH","What was the last country you visited?",523.47289800935,527.639421170577,0.355555555555556,"4.735541135072708",NA,NA,4.16652316122781
1,3,"Interrogation","14","Indirect","LIE","Is your favourite flavour Vanilla?",547.353931492078,551.186728230678,0.301851851851852,"4.499679518863559",NA,NA,3.83279673859943
1,4,"Interrogation","21","Indirect","LIE","Are you from Nanyang Business School in NTU?",571.25165694207,575.201411336078,0.315740740740741,"3.76635416271165",NA,NA,3.94975439400878
1,5,"Interrogation","17","Indirect","LIE","Did you celebrate your 21st birthday at MBS?",594.416004424449,598.881999738282,0.269444444444444,"2.2662168595707044",NA,NA,4.46599531383254
1,6,"Interrogation","20","Direct","TRUTH","Which floor of the building is your house on?",613.147530723247,617.080439165002,0.315740740740741,"2.502733232686296",NA,NA,3.93290844175499
1,7,"Interrogation","26","Direct","LIE","How often do you smoke?",634.978291652631,637.84505329805,0.321296296296296,"2.4826750905485824",NA,NA,2.86676164541859
1,8,"Interrogation","1","Indirect","LIE","Are you from Temasek Primary School?",650.960360106663,654.860161466058,0.333333333333333,"2.200244900188409",NA,NA,3.8998013593955
1,9,"Interrogation","2","Direct","TRUTH","Which secondary school did you attend?",669.891849641455,672.958161009243,0.268518518518518,"2.950067496742122",NA,NA,3.06631136778742
1,10,"Interrogation","23","Indirect","TRUTH","Are you studying Linguistics and Multilingual Studies course in NTU?",688.839865930495,693.705893901759,0.5,"2.4004926877096295",NA,NA,4.86602797126397
1,11,"Interrogation","27","Indirect","TRUTH","Do you drink alcohol socially?",708.804671389749,712.204252999858,0.507407407407407,"2.5355493476381525",NA,NA,3.39958161010873
1,12,"Interrogation","30","Indirect","LIE","Do you use a Acer laptop?",731.135670995805,734.235348012415,0.413888888888889,"2.649663735413924",NA,NA,3.09967701660935
1,13,"Interrogation","16","Indirect","TRUTH","Do you have 2 siblings?",746.150548507227,749.183873093338,0.522222222222222,"2.2009702334180474",NA,NA,3.03332458611112
1,14,"Interrogation","2","Direct","LIE","Which secondary school did you attend?",770.165169376996,773.131490304717,0.334259259259259,"2.966867253417149",NA,NA,2.96632092772052
1,15,"Interrogation","7","Direct","TRUTH","What is your favourite sport?",785.263583396329,788.396556447726,0.516666666666667,"2.4176247951108962",NA,NA,3.13297305139713
1,16,"Interrogation","23","Direct","LIE","What course are you studying?",806.995124451932,809.561320651788,0.371296296296296,"2.7160979703767225",NA,NA,2.56619619985577
1,17,"Interrogation","26","Indirect","TRUTH","Do you smoke regularly?",825.642798573594,828.925590628525,0.491666666666667,"2.866771911038086",NA,NA,3.28279205493163
1,18,"Interrogation","30","Indirect","TRUTH","Do you use a Lenovo laptop?",845.824219135917,849.257335136645,0.352777777777778,"3.0834630442550406",NA,NA,3.43311600072775
1,19,"Interrogation","29","Direct","TRUTH","What brand of handphone do you use?",865.622356110718,868.321978975902,0.52962962962963,"5.017176378169097",NA,NA,2.69962286518421
1,20,"Interrogation","22","Indirect","TRUTH","Are you in your 1st year in NTU?",883.553685886087,886.72040281177,0.50462962962963,"2.3000290646450594",NA,NA,3.16671692568343
1,21,"Interrogation","7","Indirect","LIE","Is your favourite sport Hockey?",901.502164771548,904.568652259652,0.367592592592593,"3.233461376046762",NA,NA,3.06648748810403
1,22,"Interrogation","14","Direct","TRUTH","What is your favourite flavour?(E.g. chocolate, vanilla, milktea; it can be a complicated flavour)",920.666496534715,923.899888617569,0.366666666666667,"2.733399782096967",NA,NA,3.23339208285324
1,23,"Interrogation","20","Indirect","LIE","Is your house on the 3rd floor of the building?",940.831509681186,944.431333945831,0.332407407407407,"2.549293145071715",NA,NA,3.59982426464558
1,24,"Interrogation","19","Direct","LIE","Which MRT station is closest to your house?",962.912753738347,966.079047205392,0.362037037037037,"2.432671048445627",NA,NA,3.16629346704576
1,25,"Interrogation","10","Indirect","LIE","Do you hate eating Eggplant the most?",987.793247311376,991.193018194637,0.358333333333333,"3.93473893776536",NA,NA,3.39977088326123
1,26,"Interrogation","22","Indirect","LIE","Are you in your 3rd year in NTU?",1007.74173165043,1010.97448533738,0.359259259259259,"3.3327351446496323",NA,NA,3.23275368695613
1,27,"Interrogation","10","Direct","TRUTH","What food do you hate the most?",1028.57293817378,1031.30572297855,0.388888888888889,"2.583148016827181",NA,NA,2.73278480477165
1,28,"Interrogation","6","Indirect","TRUTH","Were you in the Volleyball CCA during secondary school?",1046.58793277782,1050.95390204247,0.398148148148148,"2.5507258464349434",NA,NA,4.36596926464699
1,29,"Interrogation","27","Direct","LIE","How frequently do you drink alcohol?",1067.40191351948,1070.30199750548,0.337037037037037,"2.9829169751610607",NA,NA,2.90008398599457
1,30,"Interrogation","15","Indirect","LIE","Are you from Hwa Chong Institution (College)?",1091.76653317024,1094.89963614638,0.425,"2.7493221454788",NA,NA,3.13310297613498
1,31,"Interrogation","17","Direct","TRUTH","Where did you celebrate your 21st birthday?",1111.81451583933,1115.31425214012,0.385185185185185,"3.9662163462489843",NA,NA,3.49973630078603
1,32,"Interrogation","21","Indirect","TRUTH","Are you from the School of Humanities in NTU?",1130.34592042572,1134.24559410592,0.385185185185185,"2.0015953481197357",NA,NA,3.89967368019279
1,33,"Interrogation","28","Direct","LIE","What religion do you practice?",1149.71075148496,1152.41053443041,0.492592592592593,"1.9817470104899257",NA,NA,2.69978294544853
1,34,"Interrogation","28","Direct","TRUTH","What religion do you practice?",1164.17585881893,1166.5091980336,0.526851851851852,"1.8986785525921732",NA,NA,2.3333392146742
1,35,"Interrogation","1","Indirect","TRUTH","Are you from Tao Nan Primary School?",1178.27432127926,1181.47438203916,0.490740740740741,"2.3158599995076656",NA,NA,3.20006075990386
1,36,"Interrogation","6","Indirect","LIE","Were you in the Infocomm Club CCA during secondary school?",1202.22246941796,1205.88843406306,0.332407407407407,"2.7001419228035957",NA,NA,3.66596464510076
1,37,"Interrogation","18","Indirect","LIE","Was the last country you visited Malaysia?",1229.43612448138,1233.30254832236,0.488888888888889,"2.033594701322727",NA,NA,3.86642384098377
1,38,"Interrogation","16","Indirect","LIE","Do you have 4 siblings?",1246.26771019259,1248.86746805138,0.457407407407407,"5.133766394574195",NA,NA,2.59975785878487
1,39,"Interrogation","29","Direct","LIE","What brand of handphone do you use?",1266.03244975919,1268.83230911964,0.35462962962963,"3.1340660236310214",NA,NA,2.7998593604425
1,40,"Interrogation","15","Indirect","TRUTH","Are you from Singapore Polytechnic?",1292.01294788765,1295.27977491252,0.517592592592593,"2.6830303465249017",NA,NA,3.26682702486869
1,41,"Polygraph","30","Direct","LIE","What brand of laptop do you mainly use?",NA,NA,0.49537037037037,"3.001239899545908",1368.72223683656,1372.78845773824,4.06622090167366
1,42,"Polygraph","18","Indirect","TRUTH","Was the last country you visited Australia?",NA,NA,0.323148148148148,"2.0324317943304777",1388.80356398143,1393.00310536288,4.19954138144385
1,43,"Polygraph","7","Direct","LIE","What is your favourite sport?",NA,NA,0.349074074074074,"2.5994142798008397",1407.35161562276,1410.85128808406,3.49967246130109
1,44,"Polygraph","1","Direct","TRUTH","Which primary school are you from?",NA,NA,0.498148148148148,"2.217066150624305",1421.48364391236,1424.56666777877,3.08302386640571
1,45,"Polygraph","23","Direct","TRUTH","What course are you studying?",NA,NA,0.486111111111111,"2.4001378807006404",1436.99889227084,1441.46508327383,4.46619100298267
1,46,"Polygraph","7","Indirect","TRUTH","Is your favourite sport Kayaking?",NA,NA,0.381481481481481,"7.3667773647466674",1453.03064043622,1456.36356004199,3.3329196057748
1,47,"Polygraph","2","Indirect","TRUTH","Are you from Serangoon Secondary School?",NA,NA,0.689814814814815,"8.182355700060725",1471.31214992492,1475.52845256682,4.21630264190026
1,48,"Polygraph","27","Indirect","LIE","Do you drink alcohol rarely?",NA,NA,0.412037037037037,"3.7680191249819472",1499.72559531219,1503.55889186019,3.83329654799309
1,49,"Polygraph","23","Indirect","LIE","Are you studying Sociology course in NTU?",NA,NA,0.337037037037037,"2.551960292388685",1516.30743798579,1520.44056021003,4.13312222424429
1,50,"Polygraph","19","Indirect","LIE","Is the Canberra station the closest MRT to your house?",NA,NA,0.37037037037037,"1.9001093292608857",1535.70560518,1540.42194631824,4.71634113823529
1,51,"Polygraph","30","Direct","TRUTH","What brand of laptop do you mainly use?",NA,NA,0.519444444444444,"1.430953795555979",1551.95399956626,1555.62039793562,3.66639836935792
1,52,"Polygraph","22","Direct","TRUTH","Which year in NTU are you currently in? (Eg. 1, 2, 3, 4)",NA,NA,0.503703703703704,"2.252473062253557",1566.45214885985,1569.73519980186,3.28305094200186
1,53,"Polygraph","21","Direct","LIE","Which school in NTU are you from? (Eg. NBS, SSS, SOH)",NA,NA,0.330555555555556,"2.3834468758432195",1581.11800026183,1584.7174918548,3.59949159296229
1,54,"Polygraph","6","Direct","LIE","What CCA (Co-curricular Activity) did you join in secondary school?",NA,NA,0.5,"2.5678431971464306",1602.49876812054,1606.86535909935,4.36659097881056
1,55,"Polygraph","26","Direct","TRUTH","How often do you smoke?",NA,NA,0.839814814814815,"6.18267938925419",1619.33094988181,1622.03059263667,2.69964275485836
1,56,"Polygraph","10","Indirect","TRUTH","Do you hate eating cheese the most?",NA,NA,0.769444444444444,"4.3333129088860005",1638.31219002511,1642.4947301863,4.1825401611859
1,57,"Polygraph","14","Direct","LIE","What is your favourite flavour?(E.g. chocolate, vanilla, milktea; it can be a complicated flavour)",NA,NA,0.518518518518518,"2.6335928407497704",1659.01015402342,1663.54288993799,4.532735914574
1,58,"Polygraph","28","Indirect","LIE","Is your religion Catholicism?",NA,NA,0.400925925925926,"2.7003575016278774",1678.12492316798,1682.42450503469,4.29958186671138
1,59,"Polygraph","16","Direct","TRUTH","How many siblings do you have? (Eg. 0, 1, 2, 3)",NA,NA,0.790740740740741,"3.186288411146961",1693.80639152986,1697.13960081968,3.33320928981993
1,60,"Polygraph","16","Direct","LIE","How many siblings do you have? (Eg. 0, 1, 2, 3)",NA,NA,0.366666666666667,"2.9161064395448193",1709.72196768376,1714.32147435448,4.59950667072553
1,61,"Polygraph","26","Indirect","LIE","Do you not smoke at all?",NA,NA,0.353703703703704,"3.3670667280675843",1732.1358852915,1735.40260484768,3.26671955618076
1,62,"Polygraph","6","Direct","TRUTH","What CCA (Co-curricular Activity) did you join in secondary school?",NA,NA,0.54537037037037,"2.668140965513885",1755.76717990707,1761.73313544132,5.96595553425141
1,63,"Polygraph","22","Direct","LIE","Which year in NTU are you currently in? (Eg. 1, 2, 3, 4)",NA,NA,0.477777777777778,"1.7811816290486604",1773.79844943585,1777.79844301986,3.99999358400237
1,64,"Polygraph","20","Direct","LIE","Which floor of the building is your house on?",NA,NA,0.356481481481482,"2.9829570753499866",1789.77998182981,1794.77997926332,4.99999743350782
1,65,"Polygraph","29","Indirect","LIE","Do you use a Samsung phone?",NA,NA,0.302777777777778,"2.566338635981083",1808.1786029588,1811.52835568471,3.34975272591691
1,66,"Polygraph","27","Direct","TRUTH","How frequently do you drink alcohol?",NA,NA,0.550925925925926,"3.2661738720489666",1822.86041457881,1826.29323447926,3.43281990045216
1,67,"Polygraph","20","Indirect","TRUTH","Is your house on the 12th floor of the building?",NA,NA,0.656481481481481,"2.434086105786264",1838.97526296135,1843.24138518434,4.26612222299445
1,68,"Polygraph","2","Indirect","LIE","Are you from Nanyang Girls' High School?",NA,NA,0.537037037037037,"2.4844407845521346",1855.72357137268,1859.54032705119,3.81675567850471
1,69,"Polygraph","15","Direct","TRUTH","Which polytechnic or junior college are you from?",NA,NA,0.701851851851852,"2.749000701936893",1870.73872220737,1874.28869256517,3.54997035779525
1,70,"Polygraph","28","Indirect","TRUTH","Is your religion a free-thinker?",NA,NA,0.675925925925926,"2.533170280396007",1885.95384943101,1889.58725299849,3.63340356748085
1,71,"Polygraph","10","Direct","LIE","What food do you hate the most?",NA,NA,0.689814814814815,"3.933612602064386",1905.48533550114,1909.13483562751,3.64950012636837
1,72,"Polygraph","17","Direct","LIE","Where did you celebrate your 21st birthday?",NA,NA,0.27037037037037,"4.53323411999736",1923.75011516793,1929.2663913758,5.51627620786894
1,73,"Polygraph","19","Indirect","TRUTH","Is the Bedok station the closest MRT to your house?",NA,NA,0.672222222222222,"2.0341580295935273",1945.43136538449,1950.14783805143,4.71647266694345
1,74,"Polygraph","29","Indirect","TRUTH","Do you use a Xiaomi phone?",NA,NA,0.689814814814815,"2.5672920594224706",1962.07991529547,1966.09612253099,4.01620723551605
1,75,"Polygraph","14","Indirect","TRUTH","Is your favourite flavour Chocolate?",NA,NA,0.705555555555555,"1.9648022511973977",1976.96178767527,1981.42805246264,4.46626478736289
1,76,"Polygraph","15","Direct","LIE","Which polytechnic or junior college are you from?",NA,NA,0.538888888888889,"2.6670627500861883",1992.27695378009,1995.64316396706,3.36621018697042
1,77,"Polygraph","17","Indirect","TRUTH","Did you not celebrate your 21st birthday?",NA,NA,0.426851851851852,"4.716262541827746",2007.79164362245,2012.62482019048,4.83317656803411
1,78,"Polygraph","18","Direct","LIE","What was the last country you visited?",NA,NA,0.686111111111111,"3.150607213960029",2025.97345075116,2030.02296653262,4.04951578145847
1,79,"Polygraph","21","Direct","TRUTH","Which school in NTU are you from? (Eg. NBS, SSS, SOH)",NA,NA,0.637962962962963,"0.9485536323627457",2042.20495395211,2046.30474453256,4.09979058045428
1,80,"Polygraph","1","Direct","LIE","Which primary school are you from?",NA,NA,0.351851851851852,"3.6827599104726687",2061.65307867224,2065.93610844132,4.28302976908162
2,1,"Interrogation","6","Indirect","LIE","Were you in the Swimming CCA during secondary school?",414.891985661583,421.207196357893,0.525925925925926,"7.802066477946937",NA,NA,6.3152106963098
2,2,"Interrogation","21","Indirect","TRUTH","Are you from School of Humanities in NTU?",444.705313250422,452.404078291263,0.996296296296296,"7.269354944117367",NA,NA,7.69876504084095
2,3,"Interrogation","29","Direct","TRUTH","What brand of handphone do you use?",477.53529142309,482.801355580799,0.996296296296296,"3.616894778329879",NA,NA,5.26606415770948
2,4,"Interrogation","22","Direct","LIE","Which year in NTU are you currently in? (Eg. 1, 2, 3, 4)",506.065310786711,511.265142493881,0,"8.766320478636771",NA,NA,5.19983170717023
2,5,"Interrogation","5","Direct","LIE","What is your favourite country you visited? ",542.362102317857,548.061699518934,0.218518518518519,"4.799962658667937",NA,NA,5.69959720107727
2,6,"Interrogation","7","Indirect","TRUTH","Is your favourite sport Netball?",569.209369790973,576.858245316194,0.860185185185185,"3.0993507609236985",NA,NA,7.64887552522123
2,7,"Interrogation","30","Direct","TRUTH","What brand of laptop do you mainly use?",603.389195967698,607.622060010675,0.999074074074074,"2.2504388571251184",NA,NA,4.23286404297687
2,8,"Interrogation","15","Indirect","LIE","Are you from National Junior College?",628.77031638776,634.153154381551,0.160185185185185,"4.683856090996414",NA,NA,5.38283799379133
2,9,"Interrogation","10","Direct","TRUTH","What food do you hate the most?",666.132784740767,672.36589548015,0.900925925925926,"3.9500896320678294",NA,NA,6.23311073938385
2,10,"Interrogation","23","Direct","LIE","What course are you studying?",687.681162316818,689.880785502959,0.486111111111111,"2.3499814574606717",NA,NA,2.19962318614125
2,11,"Interrogation","10","Direct","LIE","What food do you hate the most?",732.042973988224,737.309301845264,0.110185185185185,"4.283879573456943",NA,NA,5.26632785703987
2,12,"Interrogation","30","Indirect","LIE","Do you use a Dell laptop?",757.324309922988,761.557193214074,0.0703703703703704,"4.183841654798016",NA,NA,4.23288329108618
2,13,"Interrogation","18","Direct","TRUTH","What was the last country you visited?",780.021776999114,784.68807976949,0.925925925925926,"2.433435519458726",NA,NA,4.66630277037621
2,14,"Interrogation","16","Direct","LIE","How many siblings do you have? (Eg. 0, 1, 2, 3)",801.119645013474,804.519348528236,0.89537037037037,"2.435641353717074",NA,NA,3.39970351476222
2,15,"Interrogation","7","Direct","LIE","What is your favourite sport?",830.067215387709,835.099512124434,0.0833333333333333,"2.300414989469573",NA,NA,5.03229673672467
2,16,"Interrogation","2","Direct","TRUTH","Which secondary school did you attend?",853.914421266876,858.447477983544,0.897222222222222,"1.8149595083668828",NA,NA,4.53305671666749
2,17,"Interrogation","19","Direct","TRUTH","Which MRT station is closest to your house?",870.979250850622,876.645621309988,0.897222222222222,"2.1654273017775267",NA,NA,5.66637045936659
2,18,"Interrogation","27","Direct","TRUTH","How frequently do you drink alcohol?",893.144027566072,896.80984817096,0.982407407407407,"1.6484334599226713",NA,NA,3.66582060488872
2,19,"Interrogation","27","Direct","LIE","How frequently do you drink alcohol?",916.491245956393,920.391176599078,0.00555555555555554,"3.734977165237069",NA,NA,3.89993064268492
2,20,"Interrogation","20","Indirect","LIE","Is your house on the 16 floor of the building?",951.505086315097,956.737139370525,0.0175925925925926,"4.999445012770593",NA,NA,5.23205305542797
2,21,"Interrogation","22","Direct","TRUTH","Which year in NTU are you currently in? (Eg. 1, 2, 3, 4)",981.818507257383,986.317597463029,0.986111111111111,"4.66636532661505",NA,NA,4.49909020564519
2,22,"Interrogation","15","Indirect","TRUTH","Are you from Nanyang polytechnic?",1004.04912376171,1009.11563787633,0.993518518518518,"4.55098216724582",NA,NA,5.06651411461644
2,23,"Interrogation","5","Indirect","TRUTH","Is your favourite country Korea?",1029.11386737041,1034.44664486079,1,"3.7660064133815467",NA,NA,5.3327774903737
2,24,"Interrogation","2","Direct","LIE","Which secondary school did you attend?",1068.22658691113,1072.8592834312,0.0574074074074074,"1.8314391046296805",NA,NA,4.63269652007148
2,25,"Interrogation","28","Direct","LIE","What religion do you practice?",1105.2393269192,1108.90583724831,0.0388888888888889,"3.6703974863048643",NA,NA,3.66651032911614
2,26,"Interrogation","1","Direct","TRUTH","Which primary school are you from?",1126.43737977953,1132.37010632665,0.968518518518519,"1.498731548897922",NA,NA,5.932726547122
2,27,"Interrogation","13","Indirect","LIE","Is your dream job a Scientist when you were growing up?",1156.13437816408,1162.95056345663,0.0425925925925926,"2.466888426337391",NA,NA,6.81618529255502
2,28,"Interrogation","1","Indirect","LIE","Are you from Edgefield Primary School?",1181.99826446152,1189.19781610882,0.000925925925925941,"2.967091494007036",NA,NA,7.19955164729618
2,29,"Interrogation","20","Indirect","TRUTH","Is your house on the 5 floor of the building?",1208.27896552929,1214.97848060518,0.962037037037037,"1.0490291249006987",NA,NA,6.69951507588848
2,30,"Interrogation","28","Indirect","TRUTH","Is your religion Christianity?",1248.60856996756,1254.44128329773,0.962037037037037,"2.035345317563042",NA,NA,5.83271333016455
2,31,"Interrogation","19","Indirect","LIE","Is the Cityhall station the closest MRT to your house?",1271.60640840419,1277.60570135666,0.05,"2.267479536123574",NA,NA,5.99929295247421
2,32,"Interrogation","18","Direct","LIE","What was the last country you visited?",1298.93696786975,1303.13657597825,0.05,"2.0029818541370332",NA,NA,4.19960810849443
2,33,"Interrogation","21","Direct","LIE","Which school in NTU are you from? (Eg. NBS, SSS, SOH)",1333.26636699494,1338.16615199344,0.05,"1.2660044888034463",NA,NA,4.89978499850258
2,34,"Interrogation","23","Indirect","TRUTH","Are you studying Business course in NTU?",1362.63018528256,1369.86323924013,0.95462962962963,"2.5176001575309783",NA,NA,7.23305395757779
2,35,"Interrogation","3","Indirect","TRUTH","Is Yilin your closest friend back in secondary school?",1394.17774256808,1400.14320470905,0.958333333333333,"2.033546581165865",NA,NA,5.96546214097179
2,36,"Interrogation","13","Direct","TRUTH","What is your dream job growing up?",1423.8579309301,1430.02362866793,0.947222222222222,"1.9498596170451492",NA,NA,6.16569773782976
2,37,"Interrogation","29","Indirect","LIE","Do you use a Huawei phone?",1447.83835719898,1451.67149462923,0.0555555555555556,"2.7834564356599003",NA,NA,3.83313743025064
2,38,"Interrogation","3","Direct","LIE","Who is your closest friend back in secondary school?",1466.10311505129,1472.38642520132,0.0620370370370371,"6.665732063585892",NA,NA,6.28331015002914
2,39,"Interrogation","6","Indirect","TRUTH","Were you in the Taekwondo CCA during secondary school?",1497.43366842181,1502.63322648499,0.961111111111111,"2.5349472023081034",NA,NA,5.19955806317739
2,40,"Interrogation","16","Indirect","TRUTH","Do you have 4 siblings?",1520.09814294172,1526.01389361196,0.961111111111111,"0.9814262085128576",NA,NA,5.91575067024678
2,41,"Polygraph","10","Indirect","TRUTH","Do you hate eating Pancakes the most?",NA,NA,0.977777777777778,"3.268191074952483",1645.06869236007,1653.95136706554,8.88267470546998
2,42,"Polygraph","22","Indirect","LIE","Are you in your 1st year in NTU?",NA,NA,0.0231481481481481,"2.567155076889321",1668.88329096627,1677.74897503783,8.86568407155573
2,43,"Polygraph","3","Indirect","LIE","Is Joel your closest friend back in secondary school?",NA,NA,0.0611111111111111,"4.369148732628673",1692.79763299506,1701.67996123433,8.88232823926955
2,44,"Polygraph","7","Direct","TRUTH","What is your favourite sport?",NA,NA,0.951851851851852,"2.568278204649687",1718.19514735718,1727.01079915627,8.81565179908648
2,45,"Polygraph","20","Direct","TRUTH","Which floor of the building is your house on?",NA,NA,0.951851851851852,"4.067085783928633",1747.15885182424,1756.0248130688,8.86596124456264
2,46,"Polygraph","22","Indirect","TRUTH","Are you in your 3rd year in NTU?",NA,NA,0.951851851851852,"1.549606247805059",1768.75652318704,1777.60596056446,8.8494373774156
2,47,"Polygraph","21","Indirect","LIE","Are you from School of Physical and Mathematical Sciences in NTU?",NA,NA,0.037962962962963,"2.050051199970767",1790.55428931466,1799.40383961448,8.84955029981211
2,48,"Polygraph","19","Indirect","TRUTH","Is the Punggol station the closest MRT to your house?",NA,NA,0.934259259259259,"2.4520522984676063",1810.90231195558,1819.76795207732,8.86564012174495
2,49,"Polygraph","15","Direct","TRUTH","Which polytechnic or junior college are you from?",NA,NA,0.922222222222222,"1.76626465911977",1837.06634441041,1845.94889368257,8.88254927215166
2,50,"Polygraph","18","Indirect","TRUTH","Was the last country you visited Taiwan?",NA,NA,0.92962962962963,"6.902133910451084",1854.54820947605,1863.39715763065,8.84894815459847
2,51,"Polygraph","20","Direct","LIE","Which floor of the building is your house on?",NA,NA,0.0240740740740741,"18.383789812913164",1878.76212471002,1887.62817449588,8.86604978586547
2,52,"Polygraph","3","Direct","TRUTH","Who is your closest friend back in secondary school?",NA,NA,0.528703703703704,"7.7014658723492175",1912.64213194721,1921.49112629727,8.84899435006082
2,53,"Polygraph","13","Direct","LIE","What is your dream job growing up?",NA,NA,0.0722222222222222,"2.5659055535215884",1945.20584802725,1953.13841289026,7.93256486300379
2,54,"Polygraph","15","Direct","LIE","Which polytechnic or junior college are you from?",NA,NA,0.0722222222222222,"2.0359959041234106",1972.68622906297,1981.48510741093,8.79887834796682
2,55,"Polygraph","6","Direct","LIE","What CCA (Co-curricular Activity) did you join in secondary school?",NA,NA,0.0722222222222222,"1.633375978562981",1994.43417978007,2000.66713525145,6.23295547137968
2,56,"Polygraph","10","Indirect","LIE","Do you hate eating Ramen the most?",NA,NA,0.0722222222222222,"1.9159008054994047",2017.09829115216,2022.54807698494,5.44978583278134
2,57,"Polygraph","29","Direct","LIE","What brand of handphone do you use?",NA,NA,0.0722222222222222,"1.6332306552212685",2030.7136848981,2039.56296732835,8.84928243025206
2,58,"Polygraph","2","Indirect","TRUTH","Are you from Edgefield Secondary School?",NA,NA,0.938888888888889,"3.153189669828862",2048.1621814277,2057.01106381789,8.84888239018619
2,59,"Polygraph","27","Indirect","TRUTH","Do you not drink alcohol at all?",NA,NA,0.963888888888889,"5.602137888316065",2073.30973460712,2082.17525506974,8.86552046262659
2,60,"Polygraph","5","Direct","TRUTH","What is your favourite country you visited? ",NA,NA,0.984259259259259,"1.4818236820865422",2105.93962539337,2113.67241116031,7.73278576694429
2,61,"Polygraph","13","Indirect","TRUTH","Is your dream job a Teacher when you were growing up?",NA,NA,0.986111111111111,"1.8649426982738078",2124.70412532077,2132.6204287326,7.91630341182463
2,62,"Polygraph","23","Direct","TRUTH","What course are you studying?",NA,NA,0.987037037037037,"1.5149869050364941",2141.35254306137,2147.11896138452,5.76641832315363
2,63,"Polygraph","21","Direct","TRUTH","Which school in NTU are you from? (Eg. NBS, SSS, SOH)",NA,NA,0.986111111111111,"3.883496600203216",2157.53437328781,2164.73397048889,7.19959720107727
2,64,"Polygraph","18","Indirect","LIE","Was the last country you visited Japan?",NA,NA,0.107407407407407,"2.0333781600929797",2178.81588470121,2187.21504541929,8.39916071807966
2,65,"Polygraph","5","Indirect","LIE","Is your favourite country Italy?",NA,NA,0.106481481481481,"1.8318250295706093",2197.74691933906,2204.81330384966,7.0663845106028
2,66,"Polygraph","2","Indirect","LIE","Are you from Serangoon Secondary School?",NA,NA,0.106481481481481,"1.7336464787367731",2215.69529685099,2224.5610024163,8.8657055653166
2,67,"Polygraph","1","Direct","LIE","Which primary school are you from?",NA,NA,0.106481481481481,"1.4150628708302975",2233.22710051504,2238.59337389981,5.3662733847741
2,68,"Polygraph","30","Direct","LIE","What brand of laptop do you mainly use?",NA,NA,0.106481481481481,"3.767821190180257",2262.85722131631,2271.68953781435,8.83231649803929
2,69,"Polygraph","7","Indirect","LIE","Is your favourite sport Tennis?",NA,NA,0.0203703703703704,"2.567433853633702",2282.83851407119,2289.10488234926,6.26636827806942
2,70,"Polygraph","27","Indirect","LIE","Do you drink alcohol socially?",NA,NA,0.0203703703703704,"1.6491773996967822",2302.00359009486,2309.61940184562,7.61581175075844
2,71,"Polygraph","28","Indirect","LIE","Is your religion Buddhism?",NA,NA,0.0203703703703704,"1.5486714306753129",2320.10149853025,2327.46768946899,7.36619093874469
2,72,"Polygraph","23","Indirect","LIE","Are you studying Chemistry and Biological Chemistry in NTU?",NA,NA,0.0203703703703704,"1.3335438864305615",2343.49919510796,2352.34821223491,8.84901712695137
2,73,"Polygraph","6","Direct","TRUTH","What CCA (Co-curricular Activity) did you join in secondary school?",NA,NA,0.95462962962963,"1.9817178174853325",2362.51442325604,2368.98032746185,6.46590420580469
2,74,"Polygraph","16","Direct","TRUTH","How many siblings do you have? (Eg. 0, 1, 2, 3)",NA,NA,0.95462962962963,"1.4659000355750322",2376.56281687226,2381.02891388023,4.46609700797126
2,75,"Polygraph","29","Indirect","TRUTH","Do you use a Samsung phone?",NA,NA,0.948148148148148,"2.200459195766598",2393.19444127218,2401.89363618754,8.69919491535984
2,76,"Polygraph","30","Indirect","TRUTH","Do you use an Apple laptop?",NA,NA,0.869444444444444,"5.850241948850453",2414.02538730437,2419.40868949844,5.38330219406635
2,77,"Polygraph","16","Indirect","LIE","Do you have 2 siblings?",NA,NA,0.0453703703703704,"1.9840285538230091",2434.3233131913,2443.18909254111,8.86577934981324
2,78,"Polygraph","19","Direct","LIE","Which MRT station is closest to your house?",NA,NA,0.0425925925925926,"1.7824542503803968",2453.50513764331,2462.35427378793,8.8491361446213
2,79,"Polygraph","1","Indirect","TRUTH","Are you from Woodlands Primary School?",NA,NA,0.955555555555555,"2.100134480278939",2471.66962595796,2480.53551534284,8.86588938487694
2,80,"Polygraph","28","Direct","TRUTH","What religion do you practice?",NA,NA,0.950925925925926,"1.566685423022136",2489.08492012694,2497.93367162975,8.84875150281005
3,1,"Interrogation","20","Direct","LIE","Which floor of the building is your house on?",472.051484543364,476.550835240167,NA,"None",NA,NA,4.49935069680214
3,2,"Interrogation","6","Indirect","TRUTH","Were you in the Netball CCA during secondary school?",500.148770622909,504.34802649077,NA,"None",NA,NA,4.19925586786121
3,3,"Interrogation","29","Direct","TRUTH","What brand of handphone do you use?",519.013022313826,521.479903040919,NA,"None",NA,NA,2.46688072709367
3,4,"Interrogation","24","Direct","TRUTH","How old is your mum? (Eg. 45, 52)",538.378144982271,541.144297360443,NA,"None",NA,NA,2.76615237817168
3,5,"Interrogation","19","Direct","TRUTH","Which MRT station is closest to your house?",557.809594416525,561.742393144406,NA,"None",NA,NA,3.93279872788116
3,6,"Interrogation","30","Direct","LIE","What brand of laptop do you mainly use?",575.507618084084,578.540774890687,NA,"None",NA,NA,3.03315680660307
3,7,"Interrogation","1","Direct","LIE","Which primary school are you from?",591.905905579217,594.472527803853,NA,"None",NA,NA,2.56662222463638
3,8,"Interrogation","26","Indirect","TRUTH","Do you smoke regularly?",605.121500532143,607.154530301224,NA,"None",NA,NA,2.03302976908162
3,9,"Interrogation","14","Indirect","TRUTH","Is your favourite flavour Strawberry?",623.553019580431,627.119301755447,NA,"None",NA,NA,3.56628217501566
3,10,"Interrogation","14","Indirect","LIE","Is your favourite flavour Chocolate?",646.600872966461,649.933870206121,NA,"None",NA,NA,3.33299723966047
3,11,"Interrogation","2","Direct","TRUTH","Which secondary school did you attend?",664.032350952271,667.098519242369,NA,"None",NA,NA,3.06616829009727
3,12,"Interrogation","25","Direct","TRUTH","How old is your dad? (Eg. 45, 52)",684.596920686308,687.246599499602,NA,"None",NA,NA,2.64967881329358
3,13,"Interrogation","4","Indirect","LIE","Is Mrs Leong your favourite teacher in secondary school?",703.478339131456,706.277881218586,NA,"None",NA,NA,2.79954208713025
3,14,"Interrogation","23","Indirect","LIE","Are you studying Business course in NTU?",726.259467507247,729.325799085665,NA,"None",NA,NA,3.06633157841861
3,15,"Interrogation","26","Indirect","LIE","Do you not smoke at all? ",749.606927461457,752.473489568103,NA,"None",NA,NA,2.8665621066466
3,16,"Interrogation","1","Indirect","TRUTH","Are you from Canberra Primary School?",764.038898520172,767.072092860937,NA,"None",NA,NA,3.03319434076548
3,17,"Interrogation","15","Indirect","TRUTH","Are you from Temasek Polytechnic?",780.303984232247,783.33692257246,NA,"None",NA,NA,3.03293834021315
3,18,"Interrogation","28","Indirect","TRUTH","Is your religion Buddhism?",796.219329087529,798.585492758546,NA,"None",NA,NA,2.36616367101669
3,19,"Interrogation","15","Direct","LIE","Which polytechnic or junior college are you from?",811.717410371173,814.483959260862,NA,"None",NA,NA,2.76654888968915
3,20,"Interrogation","22","Indirect","TRUTH","Are you in your 3rd year in NTU?",824.849603873678,828.016085330863,NA,"None",NA,NA,3.166481457185
3,21,"Interrogation","25","Indirect","LIE","Is your dad 49 years old this year?",841.897681821138,844.831173801795,NA,"None",NA,NA,2.93349198065698
3,22,"Interrogation","17","Indirect","TRUTH","Did you celebrate your 21st birthday at home?",858.013078774791,862.079235195648,NA,"None",NA,NA,4.06615642085671
3,23,"Interrogation","28","Direct","LIE","What religion do you practice?",873.194616109133,875.527845930308,NA,"None",NA,NA,2.33322982117534
3,24,"Interrogation","4","Direct","TRUTH","Who is your favourite teacher in secondary school?",888.026907905471,892.192987718619,NA,"None",NA,NA,4.16607981314883
3,25,"Interrogation","22","Indirect","LIE","Are you in your 1st year in NTU?",903.324870364275,905.9915680415,NA,"None",NA,NA,2.66669767722487
3,26,"Interrogation","24","Indirect","LIE","Is your mum 42 years old this year?",917.323676980566,920.439932400826,NA,"None",NA,NA,3.11625542026013
3,27,"Interrogation","20","Indirect","TRUTH","Is your house on the 6th floor of the building?",929.872696160804,933.505408400204,NA,"None",NA,NA,3.63271223939955
3,28,"Interrogation","16","Indirect","LIE","Do you have 3 siblings?",944.621076111216,950.253722265363,NA,"None",NA,NA,5.63264615414664
3,29,"Interrogation","17","Direct","LIE","Where did you celebrate your 21st birthday?",971.268325170036,975.517666563857,NA,"None",NA,NA,4.24934139382094
3,30,"Interrogation","18","Indirect","TRUTH","Was the last country you visited Australia?",989.499588411301,992.999515589327,NA,"None",NA,NA,3.49992717802525
3,31,"Interrogation","16","Indirect","TRUTH","Do you have 0 siblings?",1003.64824322425,1006.34814037522,NA,"None",NA,NA,2.69989715097472
3,32,"Interrogation","12","Direct","TRUTH","What was your favourite subject back in secondary school?",1018.36380256852,1022.39671588643,NA,"None",NA,NA,4.03291331790388
3,33,"Interrogation","2","Indirect","LIE","Are you from Naval Base Secondary School?",1033.96219862252,1037.56187756406,NA,"None",NA,NA,3.59967894153669
3,34,"Interrogation","19","Direct","LIE","Which MRT station is closest to your house?",1048.14406606229,1052.24368950492,NA,"None",NA,NA,4.09962344262749
3,35,"Interrogation","23","Indirect","TRUTH","Are you studying Materials Science and Engineering course in NTU?",1062.37622979423,1066.57555720117,NA,"None",NA,NA,4.19932740693912
3,36,"Interrogation","18","Direct","LIE","What was the last country you visited?",1080.84081903333,1084.57400291553,NA,"None",NA,NA,3.73318388219923
3,37,"Interrogation","30","Direct","TRUTH","What brand of laptop do you mainly use?",1094.87289954955,1098.67226487491,NA,"None",NA,NA,3.79936532536522
3,38,"Interrogation","6","Indirect","LIE","Were you in the NPCC CCA during secondary school?",1114.23739569122,1118.43703940883,NA,"None",NA,NA,4.19964371761307
3,39,"Interrogation","29","Direct","LIE","What brand of handphone do you use?",1129.31888644537,1132.68566926336,NA,"None",NA,NA,3.36678281798959
3,40,"Interrogation","12","Direct","LIE","What was your favourite subject back in secondary school?",1144.65114134923,1148.66714904597,NA,"None",NA,NA,4.01600769674405
3,41,"Polygraph","2","Indirect","TRUTH","Are you from Anderson Secondary School?",NA,NA,NA,"None",1227.24294909416,1231.00924743712,3.76629834296182
3,42,"Polygraph","29","Indirect","TRUTH","Do you use a Apple phone?",NA,NA,NA,"None",1248.8903178121,1252.40679323813,3.51647542603314
3,43,"Polygraph","28","Direct","TRUTH","What religion do you practice?",NA,NA,NA,"None",1262.00611993903,1264.85530741187,2.84918747283518
3,44,"Polygraph","23","Direct","TRUTH","What course are you studying?",NA,NA,NA,"None",1273.15487805055,1277.78770513693,4.63282708637416
3,45,"Polygraph","14","Direct","LIE","What is your favourite flavour?(E.g. chocolate, vanilla, milktea; it can be a complicated flavour)",NA,NA,NA,"None",1289.1201550886,1292.51991217723,3.39975708862767
3,46,"Polygraph","17","Indirect","LIE","Did you celebrate your 21st birthday at Marina Bay Sands?",NA,NA,NA,"None",1301.18547806563,1305.45135840401,4.26588033838198
3,47,"Polygraph","12","Indirect","LIE","Was your favourite subject Chemistry back in secondary school?",NA,NA,NA,"None",1315.35043314705,1319.26704773679,3.91661458974704
3,48,"Polygraph","14","Direct","TRUTH","What is your favourite flavour?(E.g. chocolate, vanilla, milktea; it can be a complicated flavour)",NA,NA,NA,"None",1328.19956447929,1331.33267515479,3.13311067549512
3,49,"Polygraph","25","Indirect","TRUTH","Is your dad 53 years old this year?",NA,NA,NA,"None",1341.04802276939,1347.63105561817,6.58303284877911
3,50,"Polygraph","1","Direct","TRUTH","Which primary school are you from?",NA,NA,NA,"None",1360.86259057838,1363.97927426919,3.11668369080871
3,51,"Polygraph","24","Indirect","TRUTH","Is your mum 51 years old this year?",NA,NA,NA,"None",1373.36174815241,1378.09450825583,4.73276010341942
3,52,"Polygraph","15","Direct","TRUTH","Which polytechnic or junior college are you from?",NA,NA,NA,"None",1386.76040104125,1389.96021125466,3.19981021340936
3,53,"Polygraph","18","Indirect","LIE","Was the last country you visited Bei Jing, China?",NA,NA,NA,"None",1399.12540469179,1402.62521285238,3.49980816058815
3,54,"Polygraph","29","Indirect","LIE","Do you use a Xiaomi phone?",NA,NA,NA,"None",1418.64066042891,1421.09026147937,2.4496010504663
3,55,"Polygraph","1","Indirect","LIE","Are you from Woodlands Primary School?",NA,NA,NA,"None",1428.88907759171,1431.68933442608,2.80025683436543
3,56,"Polygraph","2","Direct","LIE","Which secondary school did you attend?",NA,NA,NA,"None",1442.68796492228,1447.70430914033,5.0163442180492
3,57,"Polygraph","26","Direct","LIE","How often do you smoke?",NA,NA,NA,"None",1457.90329489298,1461.76963404194,3.86633914895356
3,58,"Polygraph","19","Indirect","TRUTH","Is the Redhill station the closest MRT to your house?",NA,NA,NA,"None",1470.86853985069,1475.63472815882,4.76618830813095
3,59,"Polygraph","6","Direct","LIE","What CCA (Co-curricular Activity) did you join in secondary school?",NA,NA,NA,"None",1485.46683966462,1488.81651122775,3.3496715631336
3,60,"Polygraph","26","Direct","TRUTH","How often do you smoke?",NA,NA,NA,"None",1497.81555652106,1499.88254028978,2.06698376871645
3,61,"Polygraph","22","Direct","LIE","Which year in NTU are you currently in? (Eg. 1, 2, 3, 4)",NA,NA,NA,"None",1510.31450236589,1513.74736429146,3.43286192556843
3,62,"Polygraph","16","Direct","LIE","How many siblings do you have? (Eg. 0, 1, 2, 3)",NA,NA,NA,"None",1522.39644545037,1524.83006895985,2.43362350948155
3,63,"Polygraph","12","Indirect","TRUTH","Was your favourite subject Social Studies back in secondary school?",NA,NA,NA,"None",1534.42872743029,1537.17856799159,2.74984056130052
3,64,"Polygraph","23","Direct","LIE","What course are you studying?",NA,NA,NA,"None",1546.01120849978,1549.07715864433,3.06595014454797
3,65,"Polygraph","4","Direct","LIE","Who is your favourite teacher in secondary school?",NA,NA,NA,"None",1558.65989828017,1563.09289622586,4.43299794569612
3,66,"Polygraph","20","Indirect","LIE","Is your house on the 15th floor of the building?",NA,NA,NA,"None",1572.77484835684,1575.34173941379,2.56689105695114
3,67,"Polygraph","22","Direct","TRUTH","Which year in NTU are you currently in? (Eg. 1, 2, 3, 4)",NA,NA,NA,"None",1583.77384745516,1587.09039044194,3.31654298678041
3,68,"Polygraph","15","Indirect","LIE","Are you from Serangoon Junior College?",NA,NA,NA,"None",1595.45626827795,1598.7057992653,3.24953098734841
3,69,"Polygraph","6","Direct","TRUTH","What CCA (Co-curricular Activity) did you join in secondary school?",NA,NA,NA,"None",1607.43828251632,1610.83772938978,3.39944687345996
3,70,"Polygraph","4","Indirect","TRUTH","Is Mr Tan your favourite teacher in secondary school?",NA,NA,NA,"None",1620.62022277806,1626.23633736558,5.61611458752304
3,71,"Polygraph","25","Direct","LIE","How old is your dad? (Eg. 45, 52)",NA,NA,NA,"None",1634.91872257972,1637.5354428417,2.61672026198357
3,72,"Polygraph","16","Direct","TRUTH","How many siblings do you have? (Eg. 0, 1, 2, 3)",NA,NA,NA,"None",1646.51773649873,1648.56718362821,2.04944712948054
3,73,"Polygraph","30","Indirect","LIE","Do you use a Dell laptop?",NA,NA,NA,"None",1657.13349820441,1659.36660990631,2.23311170190573
3,74,"Polygraph","24","Direct","LIE","How old is your mum? (Eg. 45, 52)",NA,NA,NA,"None",1668.64886622177,1671.48216116568,2.83329494390637
3,75,"Polygraph","28","Indirect","LIE","Is your religion Catholicism?",NA,NA,NA,"None",1681.03100615041,1683.0310215489,2.00001539848745
3,76,"Polygraph","19","Indirect","LIE","Is the Seng Kang station the closest MRT to your house?",NA,NA,NA,"None",1692.61302847322,1696.42943896865,3.81641049543396
3,77,"Polygraph","18","Direct","TRUTH","What was the last country you visited?",NA,NA,NA,"None",1704.77871626616,1707.44497027481,2.66625400865451
3,78,"Polygraph","20","Direct","TRUTH","Which floor of the building is your house on?",NA,NA,NA,"None",1716.21095038252,1718.67715229234,2.46620190981776
3,79,"Polygraph","17","Direct","TRUTH","Where did you celebrate your 21st birthday?",NA,NA,NA,"None",1727.59289173456,1730.94287479622,3.34998306166381
3,80,"Polygraph","30","Indirect","TRUTH","Do you use a Lenovo laptop?",NA,NA,NA,"None",1738.49173004646,1740.99187440751,2.50014436105266
4,1,"Interrogation","2","Direct","LIE","Which secondary school did you attend?",292.206105310237,299.188446766697,NA,"None",NA,NA,6.98234145645984
4,2,"Interrogation","17","Direct","TRUTH","Where did you celebrate your 21st birthday?",321.519741189899,328.01921026269,1,"6.566309122135863",NA,NA,6.49946907279082
4,3,"Interrogation","28","Direct","TRUTH","What religion do you practice?",349.950564418919,353.250056782039,0.886111111111111,"2.7503666765987873",NA,NA,3.2994923631195
4,4,"Interrogation","14","Indirect","TRUTH","Is your favourite flavour Spicy Cod Roe?",369.281615674263,373.581305330386,0.775,"2.200258373748511",NA,NA,4.29968965612352
4,5,"Interrogation","7","Direct","TRUTH","What is your favourite sport?",390.262899446534,395.19600101118,0.811111111111111,"2.883673682808876",NA,NA,4.93310156464577
4,6,"Interrogation","2","Direct","TRUTH","Which secondary school did you attend?",409.677636382636,414.010551176267,0.82962962962963,"2.7670419623609632",NA,NA,4.33291479363106
4,7,"Interrogation","21","Indirect","LIE","Are you from School of Engineering in NTU?",430.642360037426,434.608595310943,0.714814814814815,"3.449618053389713",NA,NA,3.96623527351767
4,8,"Interrogation","14","Direct","LIE","What is your favourite flavour?(E.g. chocolate, vanilla, milktea; it can be a complicated flavour)",454.406808957225,458.172836543759,0.759259259259259,"3.483962468802929",NA,NA,3.76602758653462
4,9,"Interrogation","22","Indirect","TRUTH","Are you in your 1st year in NTU?",471.588300096104,475.421172223287,0.759259259259259,"0.7984093355480582",NA,NA,3.83287212718278
4,10,"Interrogation","7","Indirect","LIE","Is your favourite sport Dance, Martial Arts?",493.20256814803,496.869112161454,0.711111111111111,"1.6662780686747283",NA,NA,3.66654401342385
4,11,"Interrogation","19","Indirect","LIE","Is the Woodlands station the closest MRT to your house?",515.76732908003,520.200189401396,0.786111111111111,"4.9830860379152",NA,NA,4.4328603213653
4,12,"Interrogation","16","Direct","TRUTH","How many siblings do you have? (Eg. 0, 1, 2, 3)",536.73174829362,539.898174893577,0.673148148148148,"4.198360509471968",NA,NA,3.16642659995705
4,13,"Interrogation","13","Indirect","LIE","Is your dream job a Scientist when you were growing up?",555.496641203528,560.129574796185,0.734259259259259,"2.3500032720621675",NA,NA,4.63293359265663
4,14,"Interrogation","8","Direct","TRUTH","What is your favourite food?",571.528192075668,575.494657364208,0.805555555555556,"2.168009757529944",NA,NA,3.96646528854035
4,15,"Interrogation","6","Indirect","LIE","Were you in the Basketball CCA during secondary school?",588.22667448991,593.159692966845,0.769444444444444,"3.36684986599721",NA,NA,4.9330184769351
4,16,"Interrogation","15","Direct","LIE","Which polytechnic or junior college are you from?",609.608048985247,612.640796127729,0.784259259259259,"1.8150932828430086",NA,NA,3.03274714248255
4,17,"Interrogation","26","Direct","LIE","How often do you smoke?",624.389738122933,626.92294080439,0.775925925925926,"0.8990160364191979",NA,NA,2.53320268145762
4,18,"Interrogation","19","Direct","TRUTH","Which MRT station is closest to your house?",639.188035819447,643.654378882609,0.789814814814815,"3.4995191178750247",NA,NA,4.46634306316264
4,19,"Interrogation","13","Indirect","TRUTH","Is your dream job a Teacher when you were growing up?",656.886599717429,661.486189475982,0.715740740740741,"1.3322045381646603",NA,NA,4.59958975855261
4,20,"Interrogation","22","Direct","LIE","Which year in NTU are you currently in? (Eg. 1, 2, 3, 4)",671.501677152701,675.23479623301,0.786111111111111,"2.649934492073953",NA,NA,3.73311908030882
4,21,"Interrogation","29","Indirect","LIE","Do you use a Samsung phone?",686.866658026353,690.233158539049,0.644444444444444,"4.117883169092238",NA,NA,3.3665005126968
4,22,"Interrogation","1","Indirect","TRUTH","Are you from Punggol Primary School?",705.431600532262,708.731211271137,0.687037037037037,"2.0995563950855285",NA,NA,3.29961073887534
4,23,"Interrogation","8","Indirect","LIE","Is your favourite food Grilled Lobster?",726.612412533257,732.612233846681,0.734259259259259,"1.4982557997573167",NA,NA,5.99982131342404
4,24,"Interrogation","6","Direct","TRUTH","What CCA (Co-curricular Activity) did you join in secondary school?",754.510246735299,758.443045462715,0.850925925925926,"1.284243683796376",NA,NA,3.9327987274155
4,25,"Interrogation","27","Indirect","LIE","Do you not drink alcohol at all? ",768.558588702464,772.258265141631,0.837962962962963,"1.9148793718777597",NA,NA,3.69967643916607
4,26,"Interrogation","16","Direct","LIE","How many siblings do you have? (Eg. 0, 1, 2, 3)",789.789503231877,792.82257695077,0.826851851851852,"3.2517692227847874",NA,NA,3.03307371889241
4,27,"Interrogation","23","Direct","LIE","What course are you studying?",810.454260378378,814.454042874509,0.807407407407407,"1.467479343758896",NA,NA,3.99978249613196
4,28,"Interrogation","21","Direct","TRUTH","Which school in NTU are you from? (Eg. NBS, SSS, SOH)",830.285500906641,834.185455930186,0.85462962962963,"1.2163064915221184",NA,NA,3.89995502354577
4,29,"Interrogation","27","Indirect","TRUTH","Do you drink alcohol socially?",845.334103364963,849.400271975901,0.833333333333333,"1.215468236245215",NA,NA,4.06616861093789
4,30,"Interrogation","23","Direct","TRUTH","What course are you studying?",861.949132359121,865.615783520276,0.839814814814815,"1.133219748036936",NA,NA,3.66665116115473
4,31,"Interrogation","30","Direct","LIE","What brand of laptop do you mainly use?",882.163657758152,885.096962711308,0.75462962962963,"2.3849216024391353",NA,NA,2.93330495315604
4,32,"Interrogation","29","Indirect","TRUTH","Do you use a Apple phone?",895.695787036326,898.729008645052,0.790740740740741,"1.648632677970454",NA,NA,3.03322160872631
4,33,"Interrogation","26","Indirect","TRUTH","Do you not smoke at all? ",910.227773236576,913.1606027612,0.837962962962963,"1.1325316277798265",NA,NA,2.93282952462323
4,34,"Interrogation","15","Indirect","TRUTH","Are you from Jurong Junior College?",924.676266558236,928.059357023099,0.775,"0.9824784388765693",NA,NA,3.38309046486393
4,35,"Interrogation","1","Indirect","LIE","Are you from Pei Hwa Presbyterian Primary School?",939.124931508908,943.324614684796,0.407407407407407,"9.465421078260988",NA,NA,4.19968317588791
4,36,"Interrogation","28","Direct","LIE","What religion do you practice?",960.722423222382,963.105804013088,0.769444444444444,"0.632884189253673",NA,NA,2.38338079070672
4,37,"Interrogation","20","Direct","TRUTH","Which floor of the building is your house on?",975.688182105077,978.154419624479,0.678703703703704,"0.8649622672237456",NA,NA,2.46623751940206
4,38,"Interrogation","30","Indirect","TRUTH","Do you use a HP laptop?",987.103576364461,990.203261721879,0.848148148148148,"1.29894347069785",NA,NA,3.09968535741791
4,39,"Interrogation","17","Direct","LIE","Where did you celebrate your 21st birthday?",1002.93538503302,1006.96815399011,0.675,"2.0333948417101055",NA,NA,4.03276895708404
4,40,"Interrogation","20","Direct","LIE","Which floor of the building is your house on?",1017.68383138906,1020.85025863047,0.577777777777778,"3.5497259069234133",NA,NA,3.16642724140547
4,41,"Polygraph","1","Direct","LIE","Which primary school are you from?",NA,NA,0.787037037037037,"4.150048056151718",1102.12557343347,1106.05829196051,3.93271852703765
4,42,"Polygraph","7","Indirect","TRUTH","Is your favourite sport Swimming?",NA,NA,0.898148148148148,"3.8677776250988245",1118.84030959965,1123.97316523734,5.1328556376975
4,43,"Polygraph","21","Direct","LIE","Which school in NTU are you from? (Eg. NBS, SSS, SOH)",NA,NA,0.819444444444444,"3.434227579506114",1139.32155519654,1143.28798198886,3.96642679232173
4,44,"Polygraph","2","Indirect","LIE","Are you from Pasir Ris Secondary School?",NA,NA,0.200925925925926,"0.8153082199860364",1156.0201325682,1159.81956814928,3.79943558108062
4,45,"Polygraph","6","Indirect","TRUTH","Were you in the Concert Band CCA during secondary school?",NA,NA,0.749074074074074,"7.334143785992637",1172.0515108488,1175.68473765464,3.63322680583224
4,46,"Polygraph","17","Indirect","TRUTH","Did you celebrate your 21st birthday at home?",NA,NA,0.853703703703704,"2.8664071592502296",1190.06636365852,1195.11637507915,5.05001142062247
4,47,"Polygraph","16","Indirect","TRUTH","Do you have 1 sibling?",NA,NA,0.853703703703704,"1.0650971324648708",1207.01466064923,1210.1977878781,3.18312722886913
4,48,"Polygraph","1","Direct","TRUTH","Which primary school are you from?",NA,NA,0.848148148148148,"2.5839464927557856",1217.64724264317,1221.76336749666,4.11612485349178
4,49,"Polygraph","23","Indirect","TRUTH","Are you studying Sociology course in NTU?",NA,NA,0.871296296296296,"1.4144061892293394",1233.19557081582,1237.21198817645,4.01641736063175
4,50,"Polygraph","28","Indirect","TRUTH","Is your religion Taoism?",NA,NA,0.773148148148148,"1.282027583802119",1245.6441347138,1249.04434477491,3.40021006111056
4,51,"Polygraph","16","Indirect","LIE","Do you have 3 siblings?",NA,NA,0.831481481481481,"2.382413572864607",1256.89334104978,1259.65965030016,2.76630925037898
4,52,"Polygraph","27","Direct","TRUTH","How frequently do you drink alcohol?",NA,NA,0.848148148148148,"3.6503945221193135",1271.34164926852,1275.9579444679,4.6162951993756
4,53,"Polygraph","6","Direct","LIE","What CCA (Co-curricular Activity) did you join in secondary school?",NA,NA,0.848148148148148,"1.9494403288699687",1293.57272644457,1297.67268223804,4.09995579347014
4,54,"Polygraph","30","Indirect","LIE","Do you use a Asus laptop?",NA,NA,0.410185185185185,"3.3503160539548844",1307.17149462923,1310.87086341926,3.69936879002489
4,55,"Polygraph","14","Indirect","LIE","Is your favourite flavour Vanilla?",NA,NA,0.410185185185185,"2.1661705998703837",1321.83663930441,1326.05261023715,4.21597093273886
4,56,"Polygraph","17","Indirect","LIE","Did you celebrate your 21st birthday in Dudrovnik, Croatia?",NA,NA,0.783333333333333,"3.9680231029633433",1338.15170467738,1342.53463442065,4.3829297432676
4,57,"Polygraph","13","Direct","TRUTH","What is your dream job growing up?",NA,NA,0.381481481481481,"5.483619210543111",1357.41655331664,1360.94953849423,3.53298517758958
4,58,"Polygraph","22","Indirect","LIE","Are you in your 3rd year in NTU?",NA,NA,0.419444444444444,"4.132706785574555",1374.23141562194,1378.43098170543,4.19956608349457
4,59,"Polygraph","29","Direct","LIE","What brand of handphone do you use?",NA,NA,0.656481481481481,"4.150162582285702",1389.7463473489,1392.36291811732,2.6165707684122
4,60,"Polygraph","27","Direct","LIE","How frequently do you drink alcohol?",NA,NA,0.69537037037037,"2.7830166162457317",1404.96152942977,1408.51113022375,3.54960079398006
4,61,"Polygraph","13","Direct","LIE","What is your dream job growing up?",NA,NA,0.437962962962963,"1.6984163292218",1418.3271384337,1422.04343465972,3.71629622601904
4,62,"Polygraph","14","Direct","TRUTH","What is your favourite flavour?(E.g. chocolate, vanilla, milktea; it can be a complicated flavour)",NA,NA,0.378703703703704,"0.932009233860299",1432.90874211001,1437.77547007124,4.8667279612273
4,63,"Polygraph","7","Direct","LIE","What is your favourite sport?",NA,NA,0.378703703703704,"13.880732249701396",1454.07353229891,1457.57323267008,3.499700371176
4,64,"Polygraph","19","Direct","LIE","Which MRT station is closest to your house?",NA,NA,0.753703703703704,"3.383422815706581",1481.98730522511,1486.23711723508,4.24981200997718
4,65,"Polygraph","28","Indirect","LIE","Is your religion Christianity?",NA,NA,0.75462962962963,"3.8837285398039967",1498.76925966609,1502.75213204976,3.98287238366902
4,66,"Polygraph","19","Indirect","TRUTH","Is the Beauty World station the closest MRT to your house?",NA,NA,0.75462962962963,"1.8983805275056511",1513.50079783448,1517.66731875017,4.16652091569267
4,67,"Polygraph","15","Indirect","LIE","Are you from Singapore Polytechnic?",NA,NA,0.465740740740741,"4.599985628155991",1526.48272834369,1529.94941819366,3.46668984997086
4,68,"Polygraph","21","Indirect","TRUTH","Are you from Nanyang Business School in NTU?",NA,NA,0.763888888888889,"1.8156569318380207",1543.81444654614,1547.24757088767,3.43312434153631
4,69,"Polygraph","26","Indirect","LIE","Do you smoke regularly?",NA,NA,0.763888888888889,"0.8321185633540154",1555.18024418154,1558.14673320949,2.96648902795278
4,70,"Polygraph","8","Direct","LIE","What is your favourite food?",NA,NA,0.769444444444444,"2.366911139106378",1568.77857318847,1573.44510725699,4.66653406852856
4,71,"Polygraph","26","Direct","TRUTH","How often do you smoke?",NA,NA,0.769444444444444,"2.932483699871227",1585.24384445208,1587.64368142048,2.39983696839772
4,72,"Polygraph","8","Indirect","TRUTH","Is your favourite food Sushi?",NA,NA,0.769444444444444,"6.832428458146751",1600.02552941954,1603.22528958786,3.19976016832516
4,73,"Polygraph","30","Direct","TRUTH","What brand of laptop do you mainly use?",NA,NA,0.769444444444444,"2.2164062610827386",1616.9737157335,1620.47367787897,3.49996214546263
4,74,"Polygraph","2","Indirect","TRUTH","Are you from Bukit Batok Secondary School?",NA,NA,0.769444444444444,"2.40004581050016",1629.22275846056,1633.1723380175,3.94957955693826
4,75,"Polygraph","23","Indirect","LIE","Are you studying Material science and engineering course in NTU?",NA,NA,0.212037037037037,"2.73398781218566",1643.3210476879,1648.33741115383,5.01636346592568
4,76,"Polygraph","29","Direct","TRUTH","What brand of handphone do you use?",NA,NA,0.712962962962963,"1.0149490502662957",1663.23585808743,1666.50209676148,3.26623867405578
4,77,"Polygraph","22","Direct","TRUTH","Which year in NTU are you currently in? (Eg. 1, 2, 3, 4)",NA,NA,0.896296296296296,"0.7318211158271879",1683.30059495941,1686.58315090393,3.28255594451912
4,78,"Polygraph","15","Direct","TRUTH","Which polytechnic or junior college are you from?",NA,NA,0.890740740740741,"0.7478493435773998",1696.83271333016,1700.03221493214,3.19950160197914
4,79,"Polygraph","20","Indirect","LIE","Is your house on the 12th floor of the building?",NA,NA,0.753703703703704,"1.3157676085829735",1710.41466924688,1713.58085139561,3.16618214873597
4,80,"Polygraph","20","Indirect","TRUTH","Is your house on the 5th floor of the building?",NA,NA,0.356481481481482,"10.649326893500984",1724.49622833147,1727.8127735639,3.31654523243196
5,1,"Interrogation","23","Direct","LIE","What course are you studying?",335.486791621195,339.15311620594,0.366666666666667,"5.601464204257354",NA,NA,3.66632458474487
5,2,"Interrogation","21","Indirect","LIE","Are you from School of Biological Sciences in NTU?",361.683999168454,366.450279226061,0.974074074074074,"3.1002121141646057",NA,NA,4.76628005760722
5,3,"Interrogation","28","Indirect","TRUTH","Is your religion Buddhism?",383.398852748098,386.764909591526,0.987962962962963,"3.1499437955208123",NA,NA,3.36605684342794
5,4,"Interrogation","16","Indirect","TRUTH","Do you have 1 sibling?",401.513166674646,404.496591158444,0.981481481481481,"2.7679434155579656",NA,NA,2.98342448379844
5,5,"Interrogation","27","Direct","LIE","How frequently do you drink alcohol?",423.827815967379,426.894243465504,0.531481481481481,"6.449812138220295",NA,NA,3.06642749812454
5,6,"Interrogation","15","Direct","TRUTH","Which polytechnic or junior college are you from?",444.775938441977,447.509017101256,0.855555555555556,"5.299558127298951",NA,NA,2.73307865927927
5,7,"Interrogation","18","Direct","LIE","What was the last country you visited?",465.473829618189,469.273521519965,0.717592592592593,"3.2335094965528697",NA,NA,3.79969190177508
5,8,"Interrogation","13","Direct","LIE","What is your dream job growing up?",485.971861819038,490.5045849015,0.287037037037037,"1.3316989543382078",NA,NA,4.53272308246233
5,9,"Interrogation","1","Indirect","TRUTH","Are you from Raffles Girls Primary School?",502.970229257829,505.953231245512,0.921296296296296,"2.333280187100172",NA,NA,2.98300198768266
5,10,"Interrogation","18","Direct","TRUTH","What was the last country you visited?",518.701940338593,522.468248305842,0.901851851851852,"2.717387915123254",NA,NA,3.7663079672493
5,11,"Interrogation","30","Indirect","LIE","Do you use a Apple laptop?",539.399868407054,542.732692734571,0.192592592592593,"2.1827541361562908",NA,NA,3.3328243275173
5,12,"Interrogation","22","Direct","TRUTH","Which year in NTU are you currently in? (Eg. 1, 2, 3, 4)",559.664251883514,562.697628118563,0.559259259259259,"3.749934235587716",NA,NA,3.03337623504922
5,13,"Interrogation","14","Indirect","LIE","Is your favourite flavour Vanilla?",581.728777667508,585.628739107167,0.430555555555556,"1.4650313039310277",NA,NA,3.89996143965982
5,14,"Interrogation","23","Indirect","TRUTH","Are you studying Linguistics course in NTU?",600.2773397048,604.543447491713,0.85,"3.4668778399936855",NA,NA,4.26610778691247
5,15,"Interrogation","29","Direct","TRUTH","What brand of handphone do you use?",619.891991114942,622.524764948292,0.907407407407407,"3.250469333259389",NA,NA,2.63277383334935
5,16,"Interrogation","30","Direct","TRUTH","What brand of laptop do you mainly use?",638.606844694586,642.406338019995,0.868518518518518,"2.4162155122030526",NA,NA,3.79949332540855
5,17,"Interrogation","10","Indirect","LIE","Do you hate eating Fish the most?",661.220886581112,665.18732813024,0.874074074074074,"2.568370274733752",NA,NA,3.96644154912792
5,18,"Interrogation","1","Direct","LIE","Which primary school are you from?",678.568980119191,681.83579527447,0.721296296296296,"1.7316902284510434",NA,NA,3.26681515527889
5,19,"Interrogation","7","Direct","LIE","What is your favourite sport?",695.834048828576,698.967232326046,0.338888888888889,"1.8343106030952185",NA,NA,3.13318349746987
5,20,"Interrogation","27","Direct","TRUTH","How frequently do you drink alcohol?",714.266092709266,718.098899071803,0.97962962962963,"1.8150887915398926",NA,NA,3.83280636253767
5,21,"Interrogation","15","Indirect","LIE","Are you from Eunoia Junior College?",731.930537073873,735.130360440118,0.15,"2.6663268303964287",NA,NA,3.19982336624525
5,22,"Interrogation","16","Indirect","LIE","Do you have 3 siblings?",757.39474744536,760.461299093906,0.35,"3.7662608094979078",NA,NA,3.06655164854601
5,23,"Interrogation","7","Direct","TRUTH","What is your favourite sport?",774.726728384616,778.192716640653,0.940740740740741,"2.3503843848593533",NA,NA,3.46598825603724
5,24,"Interrogation","29","Direct","LIE","What brand of handphone do you use?",791.090983604547,793.624437794555,0.286111111111111,"2.1508664218708873",NA,NA,2.53345419000834
5,25,"Interrogation","14","Direct","TRUTH","What is your favourite flavour?(E.g. chocolate, vanilla, milktea; it can be a complicated flavour)",811.556196802994,815.055774627719,0.735185185185185,"3.182732642395422",NA,NA,3.49957782472484
5,26,"Interrogation","6","Indirect","TRUTH","Were you in the Netball CCA during secondary school?",839.403391133295,843.669632373843,0.625925925925926,"2.5009771627373993",NA,NA,4.26624124054797
5,27,"Interrogation","3","Direct","LIE","Who is your closest friend back in secondary school?",858.651331905508,862.084301299648,0.692592592592593,"2.267163225216791",NA,NA,3.43296939413995
5,28,"Interrogation","20","Indirect","LIE","Is your house on the 16th floor of the building?",890.031636205502,893.098206139635,0.7,"2.0329665711615235",NA,NA,3.06656993413344
5,29,"Interrogation","21","Direct","TRUTH","Which school in NTU are you from? (Eg. NBS, SSS, SOH)",907.479878980666,910.779065940063,0.705555555555555,"1.63366919150576",NA,NA,3.29918695939705
5,30,"Interrogation","28","Indirect","LIE","Is your religion Catholicism?",929.444092239486,932.410934470361,0.748148148148148,"2.8999931989237666",NA,NA,2.96684223087505
5,31,"Interrogation","20","Direct","TRUTH","Which floor of the building is your house on?",948.808766105911,951.97536818427,0.734259259259259,"2.4173132963478565",NA,NA,3.16660207835957
5,32,"Interrogation","19","Direct","LIE","Which MRT station is closest to your house?",963.341188596794,967.307013885584,0.734259259259259,"1.663946159183979",NA,NA,3.96582528878935
5,33,"Interrogation","13","Direct","TRUTH","What is your dream job growing up?",995.137899286114,999.437557824422,0.324074074074074,"2.5853047682903707",NA,NA,4.29965853830799
5,34,"Interrogation","19","Direct","TRUTH","Which MRT station is closest to your house?",1014.16906166705,1018.60212345235,0.818518518518519,"2.4499792761635035",NA,NA,4.43306178529747
5,35,"Interrogation","10","Indirect","TRUTH","Do you hate eating Pizza the most?",1033.7503884912,1036.91703484044,0.814814814814815,"1.8152058841660619",NA,NA,3.16664634924382
5,36,"Interrogation","2","Indirect","LIE","Are you from Singapore Chinese Girls School?",1051.56554753822,1054.93173879781,0.812962962962963,"1.731789997778833",NA,NA,3.36619125958532
5,37,"Interrogation","3","Indirect","TRUTH","Is Jane your closest friend back in secondary school?",1067.78071069182,1072.34691876126,0.812962962962963,"2.466495122993365",NA,NA,4.56620806944557
5,38,"Interrogation","2","Direct","TRUTH","Which secondary school did you attend?",1084.89584779623,1088.86183797708,0.851851851851852,"2.6333535225130618",NA,NA,3.96599018084817
5,39,"Interrogation","6","Indirect","LIE","Were you in the Girl Guides CCA during secondary school?",1104.56013657176,1108.35966678942,0.199074074074074,"1.8820671066641808",NA,NA,3.79953021765687
5,40,"Interrogation","22","Direct","LIE","Which year in NTU are you currently in? (Eg. 1, 2, 3, 4)",1124.44140680647,1127.60807176214,0.877777777777778,"2.216210250975564",NA,NA,3.16666495567188
5,41,"Polygraph","7","Indirect","TRUTH","Is your favourite sport Tennis?",NA,NA,0.826851851851852,"2.8998831638600677",1215.09931098158,1219.81553759356,4.71622661198489
5,42,"Polygraph","16","Direct","TRUTH","How many siblings do you have? (Eg. 0, 1, 2, 3)",NA,NA,0.637037037037037,"2.568211156874895",1232.93086942472,1236.01376849902,3.08289907430299
5,43,"Polygraph","13","Indirect","TRUTH","Did you not have a dream job growing up?",NA,NA,0.727777777777778,"2.4329729229211807",1248.02912528859,1252.22891882039,4.19979353179224
5,44,"Polygraph","23","Direct","TRUTH","What course are you studying?",NA,NA,0.737037037037037,"2.2031497617717832",1266.02735895291,1269.47730839462,3.44994944171049
5,45,"Polygraph","15","Direct","LIE","Which polytechnic or junior college are you from?",NA,NA,0.732407407407407,"1.8825762192718685",1282.65928715235,1286.22558504646,3.5662978941109
5,46,"Polygraph","13","Indirect","LIE","Is your dream job a Doctor when you were growing up?",NA,NA,0.307407407407407,"2.150277108652517",1297.6579240649,1302.32380113099,4.66587706608698
5,47,"Polygraph","18","Indirect","TRUTH","Was the last country you visited Japan?",NA,NA,0.353703703703704,"2.1002291166223586",1313.38936823816,1317.3726352083,3.98326697014272
5,48,"Polygraph","27","Indirect","TRUTH","Do you drink alcohol regularly?",NA,NA,0.348148148148148,"1.8486716232728213",1328.50473888637,1332.20419108495,3.69945219857618
5,49,"Polygraph","2","Indirect","TRUTH","Are you from Anderson Secondary School?",NA,NA,0.348148148148148,"2.0998496080283076",1344.40283261705,1347.90276589035,3.49993327329867
5,50,"Polygraph","10","Direct","LIE","What food do you hate the most?",NA,NA,0.5,"2.2337696668691933",1360.15144226141,1363.23444110528,3.08299884386361
5,51,"Polygraph","18","Indirect","LIE","Was the last country you visited Bangkok, Thailand?",NA,NA,0.444444444444444,"2.7838831022381783",1380.93261298328,1384.89916135953,3.96654837625101
5,52,"Polygraph","21","Direct","LIE","Which school in NTU are you from? (Eg. NBS, SSS, SOH)",NA,NA,0.437962962962963,"2.34974855533801",1400.28093044111,1403.71379525401,3.43286481290124
5,53,"Polygraph","23","Indirect","LIE","Are you studying Accounting course in NTU?",NA,NA,0.235185185185185,"2.1686616269871593",1415.14570022724,1419.27911726851,4.13341704127379
5,54,"Polygraph","14","Indirect","TRUTH","Is your favourite flavour Blueberry?",NA,NA,0.276851851851852,"2.002576039871201",1429.47777451994,1433.44392734743,3.96615282748826
5,55,"Polygraph","19","Indirect","LIE","Is the Dover station the closest MRT to your house?",NA,NA,0.249074074074074,"2.0357357335742563",1448.87575725303,1453.52567121387,4.64991396083497
5,56,"Polygraph","28","Direct","TRUTH","What religion do you practice?",NA,NA,0.257407407407407,"2.30000917497091",1463.44091148814,1465.19094420993,1.75003272178583
5,57,"Polygraph","7","Indirect","LIE","Is your favourite sport Softball?",NA,NA,0.540740740740741,"5.466580777196214",1478.5394852669,1481.90626840596,3.36678313906305
5,58,"Polygraph","22","Indirect","TRUTH","Are you in your 1st year in NTU?",NA,NA,0.540740740740741,"1.6315756379626691",1495.2710792548,1497.72111916239,2.45003990759142
5,59,"Polygraph","20","Indirect","TRUTH","Is your house on the 24th floor of the building?",NA,NA,0.857407407407407,"2.266670152777806",1509.95333358133,1513.45287900511,3.49954542377964
5,60,"Polygraph","1","Direct","TRUTH","Which primary school are you from?",NA,NA,0.700925925925926,"0.9485568401869386",1522.73510933574,1525.68482330861,2.94971397286281
5,61,"Polygraph","21","Indirect","TRUTH","Are you from School of Humanities in NTU?",NA,NA,0.692592592592593,"1.0816428139805794",1536.23373598256,1539.90046862746,3.66673264489509
5,62,"Polygraph","19","Indirect","TRUTH","Is the Eunos station the closest MRT to your house?",NA,NA,0.682407407407407,"1.931588021107018",1550.48236262938,1554.46546021593,3.98309758654796
5,63,"Polygraph","6","Direct","LIE","What CCA (Co-curricular Activity) did you join in secondary school?",NA,NA,0.641666666666667,"2.1825940560083836",1569.36393858818,1572.96374552953,3.5998069413472
5,64,"Polygraph","29","Indirect","LIE","Do you use a Huawei phone?",NA,NA,0.365740740740741,"3.0160763482563198",1582.87948015961,1585.34584824531,2.46636808570474
5,65,"Polygraph","3","Direct","TRUTH","Who is your closest friend back in secondary school?",NA,NA,0.681481481481481,"2.5323827117681503",1596.17775251274,1600.47764587821,4.29989336547442
5,66,"Polygraph","27","Indirect","LIE","Do you drink alcohol rarely?",NA,NA,0.718518518518519,"2.268099967157468",1615.25910628424,1618.82551613823,3.56640985398553
5,67,"Polygraph","30","Direct","LIE","What brand of laptop do you mainly use?",NA,NA,0.790740740740741,"1.8648467785678804",1630.62444709777,1633.54079317651,2.91634607873857
5,68,"Polygraph","2","Direct","LIE","Which secondary school did you attend?",NA,NA,0.423148148148148,"2.067511808592826",1650.75582736754,1654.02216292382,3.26633555628359
5,69,"Polygraph","28","Direct","LIE","What religion do you practice?",NA,NA,0.52962962962963,"1.3818396581336856",1663.78794188867,1666.68756552367,2.89962363499217
5,70,"Polygraph","22","Indirect","LIE","Are you in your 3rd year in NTU?",NA,NA,0.142592592592593,"2.2504828069359064",1676.65308925859,1679.58650007634,2.93341081775725
5,71,"Polygraph","1","Indirect","LIE","Are you from Pioneer Primary School?",NA,NA,0.39537037037037,"1.581655645975843",1689.45192718552,1691.81861953787,2.36669235234149
5,72,"Polygraph","15","Indirect","TRUTH","Are you from Singapore Polytechnic?",NA,NA,0.966666666666667,"1.1817891637329012",1700.98412511521,1704.00078051118,3.01665539597161
5,73,"Polygraph","16","Direct","LIE","How many siblings do you have? (Eg. 0, 1, 2, 3)",NA,NA,0.658333333333333,"1.4157888456247747",1713.24948286731,1715.71614384511,2.4666609778069
5,74,"Polygraph","29","Indirect","TRUTH","Do you use a Apple phone?",NA,NA,0.860185185185185,"1.831730713834986",1724.64835037221,1726.94813787285,2.29978750064038
5,75,"Polygraph","20","Direct","LIE","Which floor of the building is your house on?",NA,NA,0.62962962962963,"1.5482694660313427",1738.39703989611,1740.78036807524,2.38332817913033
5,76,"Polygraph","14","Direct","LIE","What is your favourite flavour?(E.g. chocolate, vanilla, milktea; it can be a complicated flavour)",NA,NA,0.525925925925926,"1.7987901277374476",1752.09598747338,1754.82907671924,2.73308924585581
5,77,"Polygraph","6","Direct","TRUTH","What CCA (Co-curricular Activity) did you join in secondary school?",NA,NA,0.790740740740741,"1.3833009109366685",1765.22767186328,1768.22721375804,2.99954189476557
5,78,"Polygraph","3","Indirect","LIE","Is Glenda your closest friend back in secondary school?",NA,NA,0.843518518518519,"1.4149704799056053",1779.85963759641,1783.97594145755,4.1163038611412
5,79,"Polygraph","10","Direct","TRUTH","What food do you hate the most?",NA,NA,0.759259259259259,"1.4989429574925452",1798.10757644381,1800.79080921644,2.68323277262971
5,80,"Polygraph","30","Indirect","TRUTH","Do you use a Dell laptop?",NA,NA,0.774074074074074,"1.5483102079015225",1809.80678387056,1812.12331466703,2.3165307964664
6,1,"Interrogation","9","Direct","TRUTH","What is your favourite drink?",342.592922531534,346.792861707509,0.999074074074074,"5.432699599768966",NA,NA,4.19993917597458
6,2,"Interrogation","13","Indirect","TRUTH","Is your dream job a Teacher when you were growing up?",368.023730361834,373.056736391969,0.998148148148148,"3.51779648847878",NA,NA,5.03300603013486
6,3,"Interrogation","16","Indirect","LIE","Do you have 1 siblings?",391.755265643355,394.588004316669,0,"8.283477287739515",NA,NA,2.83273867331445
6,4,"Interrogation","27","Direct","TRUTH","How frequently do you drink alcohol?",418.335647063795,421.635180810466,0.798148148148148,"6.6009242949076",NA,NA,3.29953374667093
6,5,"Interrogation","4","Indirect","TRUTH","Is Ms Low your favourite teacher in secondary school?",438.650279995985,442.282867443282,0.876851851851852,"2.999459127895534",NA,NA,3.63258744729683
6,6,"Interrogation","16","Indirect","TRUTH","Do you have 3 sibling?",457.531365448609,461.031298079994,0.873148148148148,"3.2357211052440107",NA,NA,3.49993263138458
6,7,"Interrogation","1","Indirect","TRUTH","Are you from Pasir Ris Primary School?",480.412493567914,484.012366915122,0.686111111111111,"8.565950465388596",NA,NA,3.5998733472079
6,8,"Interrogation","15","Direct","LIE","Which polytechnic or junior college are you from?",504.843759182841,508.076399305835,0.224074074074074,"2.6329910159111023",NA,NA,3.23264012299478
6,9,"Interrogation","13","Indirect","LIE","Is your dream job a Singer when you were growing up?",529.624287980143,533.257418224122,0.142592592592593,"1.3815595982596278",NA,NA,3.63313024397939
6,10,"Interrogation","30","Indirect","TRUTH","Do you use a Microsoft laptop?",545.222606720868,548.289400575217,0.843518518518519,"3.4999230075627565",NA,NA,3.06679385434836
6,11,"Interrogation","29","Indirect","LIE","Do you use a Samsung phone?",563.504638475366,567.004187748767,0.132407407407407,"1.8153210519813001",NA,NA,3.4995492734015
6,12,"Interrogation","30","Direct","LIE","What brand of laptop do you mainly use?",584.202241250779,587.06883639982,0.107407407407407,"7.450353973079473",NA,NA,2.86659514904022
6,13,"Interrogation","2","Indirect","TRUTH","Are you from Chung Cheng High School (Main)?",604.650021750014,608.116694276687,0.873148148148148,"3.367136983666569",NA,NA,3.46667252667248
6,14,"Interrogation","1","Direct","LIE","Which primary school are you from?",621.265216919594,624.698359226342,0.108333333333333,"1.7644226141273975",NA,NA,3.43314230674878
6,15,"Interrogation","9","Direct","LIE","What is your favourite drink?",636.280301027466,639.146754061338,0.0638888888888889,"3.933653023093939",NA,NA,2.86645303387195
6,16,"Interrogation","4","Indirect","LIE","Is Mr Wong your favourite teacher in secondary school?",654.928808913566,658.328184568789,0.0638888888888889,"2.1501224818639457",NA,NA,3.39937565522268
6,17,"Interrogation","8","Direct","TRUTH","What is your favourite food?",670.660214911681,673.559996702243,0.95462962962963,"2.1006265906617045",NA,NA,2.89978179056197
6,18,"Interrogation","10","Direct","TRUTH","What food do you hate the most?",686.275290742517,689.575383005198,0.912962962962963,"1.6146504478529096",NA,NA,3.30009226268157
6,19,"Interrogation","15","Indirect","TRUTH","Are you from Tampines Junior College?",699.657429388259,703.006840460002,0.850925925925926,"1.5477260276675224",NA,NA,3.34941107174382
6,20,"Interrogation","12","Indirect","LIE","Was your favourite subject Biology back in secondary school?",714.43894497212,718.405811263248,0.163888888888889,"3.149694211781025",NA,NA,3.9668662911281
6,21,"Interrogation","6","Direct","LIE","What CCA (Co-curricular Activity) did you join in secondary school?",734.987383821514,738.420119992457,0.0925925925925926,"2.5004176842048764",NA,NA,3.43273617094383
6,22,"Interrogation","27","Indirect","LIE","Do you drink alcohol frequently?",753.78548807418,757.185213403776,0.0925925925925926,"2.2007222534157336",NA,NA,3.39972532959655
6,23,"Interrogation","28","Indirect","TRUTH","Is your religion Taoism?",769.467285899911,772.883527397178,0.797222222222222,"2.7181257596239448",NA,NA,3.41624149726704
6,24,"Interrogation","21","Indirect","TRUTH","Are you from Nanyang Business School in NTU?",785.798719230108,789.265232959762,0.868518518518518,"1.0822035758756101",NA,NA,3.46651372965425
6,25,"Interrogation","20","Direct","LIE","Which floor of the building is your house on?",799.880510896444,802.580324638635,0.174074074074074,"3.1166788786649704",NA,NA,2.6998137421906
6,26,"Interrogation","19","Direct","TRUTH","Which MRT station is closest to your house?",814.64607652789,818.512368198484,0.922222222222222,"1.0986273526214063",NA,NA,3.86629167059436
6,27,"Interrogation","19","Indirect","LIE","Is the Eunos station the closest MRT to your house?",831.077489070129,834.577316799667,0.157407407407407,"2.416226098779589",NA,NA,3.49982772953808
6,28,"Interrogation","10","Indirect","LIE","Do you hate eating Ramen the most?",848.775983033236,852.342312045395,0.133333333333333,"3.799467019736767",NA,NA,3.56632901215926
6,29,"Interrogation","23","Direct","TRUTH","What course are you studying?",867.590588697232,870.79012590833,0.887962962962963,"2.651940787676722",NA,NA,3.19953721109778
6,30,"Interrogation","21","Indirect","LIE","Are you from School of Biological Sciences in NTU?",883.738804011606,887.371970506385,0.0824074074074074,"1.115005895961076",NA,NA,3.63316649477929
6,31,"Interrogation","22","Indirect","LIE","Are you in your 3rd year in NTU?",896.537653487641,899.137483206112,0.1,"1.8143904055468738",NA,NA,2.59982971847057
6,32,"Interrogation","6","Indirect","TRUTH","Were you in the Choir CCA during secondary school?",911.5197325279,914.919377336279,0.765740740740741,"1.181806487031281",NA,NA,3.39964480837807
6,33,"Interrogation","23","Direct","LIE","What course are you studying?",927.051223410293,929.767793280073,0.14537037037037,"3.3334457208402455",NA,NA,2.71656986977905
6,34,"Interrogation","12","Indirect","TRUTH","Was your favourite subject Mathematics back in secondary school?",945.582669380121,949.982437696774,0.625925925925926,"3.8351154951378703",NA,NA,4.39976831665263
6,35,"Interrogation","22","Direct","TRUTH","Which year in NTU are you currently in? (Eg. 1, 2, 3, 4)",963.080842413008,965.414181306958,0.767592592592593,"2.9321414045989513",NA,NA,2.33333889394999
6,36,"Interrogation","28","Direct","LIE","What religion do you practice?",981.812705874443,984.112410608213,0.174074074074074,"2.582728728186339",NA,NA,2.29970473377034
6,37,"Interrogation","29","Indirect","TRUTH","Do you use a Apple phone?",995.144496899098,997.944448329508,0.803703703703704,"3.0486849048174918",NA,NA,2.79995143041015
6,38,"Interrogation","20","Indirect","TRUTH","Is your house on the 7th floor of the building?",1014.47605470056,1017.54206419364,0.786111111111111,"3.3346920367330313",NA,NA,3.06600949307904
6,39,"Interrogation","2","Direct","LIE","Which secondary school did you attend?",1031.94096153323,1034.84039846156,0.193518518518519,"3.716916656587273",NA,NA,2.89943692833185
6,40,"Interrogation","8","Direct","LIE","What is your favourite food?",1050.33918807562,1053.10510979732,0.193518518518519,"2.1003693072125316",NA,NA,2.76592172170058
6,41,"Polygraph","9","Indirect","LIE","Is your favourite drink Green Tea?",NA,NA,0.106481481481481,"2.4830879624933004",1119.13226953242,1122.13203246007,2.99976292764768
6,42,"Polygraph","9","Indirect","TRUTH","Is your favourite drink Apple Juice?",NA,NA,0.97037037037037,"0.8817838383838534",1131.8307914054,1134.83043403225,2.99964262684807
6,43,"Polygraph","30","Indirect","LIE","Do you use a HP laptop?",NA,NA,0.0203703703703704,"2.849868855904788",1145.4126770664,1148.91269374825,3.50001668184996
6,44,"Polygraph","15","Direct","TRUTH","Which polytechnic or junior college are you from?",NA,NA,0.973148148148148,"3.7832485563121736",1159.31162862154,1162.24477189034,2.933143268805
6,45,"Polygraph","19","Indirect","TRUTH","Is the Lorong Chuan station the closest MRT to your house?",NA,NA,0.986111111111111,"1.082157701253891",1171.9936147579,1175.19343395391,3.1998191960156
6,46,"Polygraph","2","Indirect","LIE","Are you from Serangoon Secondary School?",NA,NA,0.012037037037037,"3.349845116958022",1183.69243241008,1188.59188569942,4.89945328934118
6,47,"Polygraph","30","Direct","TRUTH","What brand of laptop do you mainly use?",NA,NA,0.940740740740741,"3.6164681115187705",1208.63972593239,1211.80626320885,3.16653727646917
6,48,"Polygraph","21","Direct","LIE","Which school in NTU are you from? (Eg. NBS, SSS, SOH)",NA,NA,0.989814814814815,"2.583522392436862",1221.58849899331,1224.02184051787,2.43334152456373
6,49,"Polygraph","13","Direct","TRUTH","What is your dream job growing up?",NA,NA,0.975925925925926,"1.0317523358389735",1232.12096030125,1235.25399494637,3.13303464511409
6,50,"Polygraph","19","Direct","LIE","Which MRT station is closest to your house?",NA,NA,0.0314814814814815,"0.8982416205108166",1245.16965194279,1248.56922457041,3.39957262761891
6,51,"Polygraph","23","Indirect","LIE","Are you studying Biological Sciences course in NTU?",NA,NA,0.025,"3.566721352748573",1258.18462633621,1261.40111857234,3.21649223612621
6,52,"Polygraph","29","Direct","LIE","What brand of handphone do you use?",NA,NA,0.0222222222222222,"1.0147232059389353",1271.33399300883,1274.16661394807,2.83262093923986
6,53,"Polygraph","16","Direct","TRUTH","How many siblings do you have? (Eg. 0, 1, 2, 3)",NA,NA,0.982407407407407,"3.0827842270955443",1283.63211715175,1285.66561047966,2.03349332790822
6,54,"Polygraph","4","Direct","LIE","Who is your favourite teacher in secondary school?",NA,NA,0.00462962962962965,"2.6175995799712837",1313.04585094005,1316.09589059092,3.05003965087235
6,55,"Polygraph","27","Indirect","TRUTH","Do you drink alcohol socially?",NA,NA,0.955555555555555,"1.114751500543207",1326.82821151614,1329.59465550352,2.76644398737699
6,56,"Polygraph","1","Direct","TRUTH","Which primary school are you from?",NA,NA,0.983333333333333,"2.0841245376504958",1337.64371285914,1340.3101076996,2.66639484046027
6,57,"Polygraph","21","Direct","TRUTH","Which school in NTU are you from? (Eg. NBS, SSS, SOH)",NA,NA,0.988888888888889,"1.2648197668604553",1353.67529901955,1356.45845775073,2.78315873118117
6,58,"Polygraph","12","Direct","LIE","What was your favourite subject back in secondary school?",NA,NA,0.0925925925925926,"2.2663188744336367",1365.22419340769,1369.05720765004,3.83301424235106
6,59,"Polygraph","1","Indirect","LIE","Are you from Pei Chun Public Primary School?",NA,NA,0.0675925925925926,"2.1020018686540425",1378.13973523537,1380.97288132738,2.83314609201625
6,60,"Polygraph","27","Direct","LIE","How frequently do you drink alcohol?",NA,NA,0.112037037037037,"2.451257351320237",1391.28804935701,1394.43795882678,3.14990946976468
6,61,"Polygraph","28","Direct","TRUTH","What religion do you practice?",NA,NA,0.962962962962963,"1.2819695184007287",1403.87013102835,1405.95373907499,2.08360804663971
6,62,"Polygraph","22","Indirect","TRUTH","Are you in your 2nd year in NTU?",NA,NA,0.953703703703704,"0.715160587336868",1414.53614251036,1419.16906455439,4.63292204402387
6,63,"Polygraph","20","Direct","TRUTH","Which floor of the building is your house on?",NA,NA,0.953703703703704,"2.04983818763867",1428.98460888444,1431.4010184817,2.41640959726647
6,64,"Polygraph","10","Direct","LIE","What food do you hate the most?",NA,NA,0.0324074074074074,"1.4319848529994488",1440.23342223791,1442.99954670668,2.76612446876243
6,65,"Polygraph","16","Direct","LIE","How many siblings do you have? (Eg. 0, 1, 2, 3)",NA,NA,0.0314814814814815,"0.6152667081914842",1450.83248042781,1453.13235775288,2.29987732507288
6,66,"Polygraph","22","Direct","LIE","Which year in NTU are you currently in? (Eg. 1, 2, 3, 4)",NA,NA,0.0314814814814815,"0.46557923359796405",1461.58136724494,1464.13095296128,2.54958571633324
6,67,"Polygraph","6","Direct","TRUTH","What CCA (Co-curricular Activity) did you join in secondary school?",NA,NA,0.852777777777778,"3.299573846627027",1473.69649665011,1476.76316378731,3.06666713720188
6,68,"Polygraph","6","Indirect","LIE","Were you in the Netball CCA during secondary school?",NA,NA,0.0361111111111111,"2.216693378519267",1487.84542414499,1490.97859416855,3.13317002356052
6,69,"Polygraph","12","Direct","TRUTH","What was your favourite subject back in secondary school?",NA,NA,0.936111111111111,"0.98140760185197",1501.39390181145,1504.97708158754,3.58317977609113
6,70,"Polygraph","2","Direct","TRUTH","Which secondary school did you attend?",NA,NA,0.934259259259259,"1.6148961819708347",1513.12624936318,1516.15921144281,3.03296207962558
6,71,"Polygraph","10","Indirect","TRUTH","Do you hate eating White Rice the most?",NA,NA,0.957407407407407,"2.1336152967996895",1524.9250763827,1528.27472260222,3.34964621951804
6,72,"Polygraph","4","Direct","TRUTH","Who is your favourite teacher in secondary school?",NA,NA,0.957407407407407,"0.6345667955465615",1537.52339191595,1541.20664778631,3.68325587036088
6,73,"Polygraph","8","Indirect","LIE","Is your favourite food Sashimi?",NA,NA,0.0657407407407408,"0.9143096278421581",1551.05554108368,1553.5890087476,2.53346766391769
6,74,"Polygraph","20","Indirect","LIE","Is your house on the 4th floor of the building?",NA,NA,0.0657407407407408,"1.7817375790327787",1561.38785501523,1564.23769949051,2.84984447527677
6,75,"Polygraph","13","Direct","LIE","What is your dream job growing up?",NA,NA,0.0657407407407408,"0.10047164326533675",1573.25322053069,1576.47002298199,3.21680245129392
6,76,"Polygraph","29","Direct","TRUTH","What brand of handphone do you use?",NA,NA,0.949074074074074,"1.4480438781902194",1586.43579758424,1588.76836751588,2.33256993163377
6,77,"Polygraph","28","Indirect","LIE","Is your religion Christianity?",NA,NA,0.105555555555556,"2.76644270401448",1600.55076273857,1602.81722693658,2.26646419800818
6,78,"Polygraph","15","Indirect","LIE","Are you from Singapore Polytechnic?",NA,NA,0.10462962962963,"2.166291863191873",1613.36586404126,1616.21569408057,2.8498300393112
6,79,"Polygraph","8","Indirect","TRUTH","Is your favourite food Pizza?",NA,NA,0.989814814814815,"3.015726674348116",1625.16470613889,1627.78119734814,2.61649120924994
6,80,"Polygraph","23","Indirect","TRUTH","Are you studying Sociology course in NTU?",NA,NA,0.891666666666667,"2.5339533579535782",1638.66343351733,1642.5133399074,3.84990639006719
7,1,"Interrogation","28","Indirect","TRUTH","Is your religion Buddhism?",351.338797980919,354.905082401354,0.99537037037037,"6.986021054908633",NA,NA,3.56628442043439
7,2,"Interrogation","16","Direct","LIE","How many siblings do you have? (Eg. 0, 1, 2, 3)",373.436348080635,376.535978259984,0.996296296296296,"3.3994991639629006",NA,NA,3.09963017934933
7,3,"Interrogation","27","Indirect","TRUTH","Do you drink alcohol rarely?",391.30139792664,395.434334406629,0,"2.23338021337986",NA,NA,4.13293647998944
7,4,"Interrogation","18","Direct","TRUTH","What was the last country you visited?",407.749307388905,412.24907159945,0.0138888888888889,"3.3169709369540215",NA,NA,4.49976421054453
7,5,"Interrogation","15","Indirect","LIE","Are you from Republic Polytechnic?",426.547392072622,430.01411528606,0.999074074074074,"1.48155324626714",NA,NA,3.46672321343794
7,6,"Interrogation","8","Direct","TRUTH","What is your favourite food?",444.379186946899,448.378754505888,0.00648148148148148,"2.234590598847717",NA,NA,3.99956755898893
7,7,"Interrogation","1","Indirect","LIE","Are you from Clementi Primary School?",460.727440244518,464.594049508683,0.997222222222222,"3.1165325925685465",NA,NA,3.86660926416516
7,8,"Interrogation","19","Direct","TRUTH","Which MRT station is closest to your house?",477.825910724699,482.292350990698,0.986111111111111,"0.9153538383543491",NA,NA,4.46644026599824
7,9,"Interrogation","19","Direct","LIE","Which MRT station is closest to your house?",495.824207908008,500.923757566139,0.00185185185185183,"1.0985619090497494",NA,NA,5.09954965813085
7,10,"Interrogation","29","Direct","TRUTH","What brand of handphone do you use?",513.539036464877,516.772048718296,1,"2.3670834098011255",NA,NA,3.23301225341856
7,11,"Interrogation","16","Direct","TRUTH","How many siblings do you have? (Eg. 0, 1, 2, 3)",527.971022601239,530.770771285053,0.999074074074074,"1.4823507596738636",NA,NA,2.79974868381396
7,12,"Interrogation","6","Direct","LIE","What CCA (Co-curricular Activity) did you join in secondary school?",541.803015730809,545.836195635609,0.999074074074074,"2.0668798284605145",NA,NA,4.03317990479991
7,13,"Interrogation","15","Direct","TRUTH","Which polytechnic or junior college are you from?",557.501580270473,560.767496859655,0.999074074074074,"2.0016386564821005",NA,NA,3.26591658918187
7,14,"Interrogation","2","Direct","LIE","Which secondary school did you attend?",576.116244833451,579.582644999493,0.999074074074074,"0.8985226429067552",NA,NA,3.46640016604215
7,15,"Interrogation","27","Direct","LIE","How frequently do you drink alcohol?",593.214560687542,596.897009741049,0.999074074074074,"1.6326833674684167",NA,NA,3.6824490535073
7,16,"Interrogation","30","Indirect","LIE","Do you use a Asus laptop?",613.262553622015,616.495484070852,0.999074074074074,"1.5480699269101024",NA,NA,3.23293044883758
7,17,"Interrogation","4","Indirect","TRUTH","Is Mrs Tan your favourite teacher in secondary school?",631.410892766435,634.810306917876,0.999074074074074,"2.334306112024933",NA,NA,3.39941415144131
7,18,"Interrogation","3","Indirect","TRUTH","Is Nicole your closest friend back in secondary school?",650.025473920628,654.658516907133,0.999074074074074,"2.2026441781781614",NA,NA,4.63304298650473
7,19,"Interrogation","12","Direct","LIE","What was your favourite subject back in secondary school?",667.65730684204,671.689932400826,0.999074074074074,"1.548618819564581",NA,NA,4.03262555878609
7,20,"Interrogation","26","Indirect","LIE","Do you not smoke at all? ",683.872081183363,686.938577012625,0.999074074074074,"0.6654404546134174",NA,NA,3.06649582926184
7,21,"Interrogation","20","Indirect","LIE","Is your house on the 14th floor of the building?",704.42015496036,708.319666635711,0.999074074074074,"1.5655189868994057",NA,NA,3.89951167535037
7,22,"Interrogation","20","Indirect","TRUTH","Is your house on the 6th floor of the building?",719.335266913753,722.734914609231,0.999074074074074,"4.449528870172799",NA,NA,3.39964769547805
7,23,"Interrogation","28","Direct","LIE","What religion do you practice?",738.616740793455,743.449472409207,0,"2.401043825317174",NA,NA,4.83273161575198
7,24,"Interrogation","8","Indirect","LIE","Is your favourite food Pizza?",756.998503459152,760.197881552391,0.049074074074074,"1.8487659390084445",NA,NA,3.19937809323892
7,25,"Interrogation","22","Indirect","LIE","Are you in your 3rd year in NTU?",776.245908491779,779.546097315848,0.155555555555556,"2.616572692990303",NA,NA,3.30018882406875
7,26,"Interrogation","29","Direct","LIE","What brand of handphone do you use?",791.828063305933,794.827765280847,0.25,"2.0825426634401083",NA,NA,2.99970197491348
7,27,"Interrogation","1","Direct","TRUTH","Which primary school are you from?",805.793432414066,809.226328024175,0.283333333333333,"4.049949505832046",NA,NA,3.43289561010897
7,28,"Interrogation","30","Indirect","TRUTH","Do you use a HP laptop?",823.458506833762,826.757880500052,0.768518518518519,"2.001109654083848",NA,NA,3.29937366629019
7,29,"Interrogation","4","Direct","LIE","Who is your favourite teacher in secondary school?",844.456060077529,848.155589589383,0.243518518518519,"1.9156788103282452",NA,NA,3.69952951185405
7,30,"Interrogation","21","Indirect","LIE","Are you from School of Social Sciences in NTU?",860.271307024173,864.437397744507,0.208333333333333,"0.8000364433974028",NA,NA,4.16609072033316
7,31,"Interrogation","2","Direct","TRUTH","Which secondary school did you attend?",877.853041587397,881.252603949513,0.230555555555556,"2.966238161083311",NA,NA,3.39956236211583
7,32,"Interrogation","18","Indirect","LIE","Was the last country you visited Malaysia?",894.401378101204,898.600945146754,0.305555555555556,"2.03486315254122",NA,NA,4.19956704555079
7,33,"Interrogation","22","Direct","TRUTH","Which year in NTU are you currently in? (Eg. 1, 2, 3, 4)",909.699752789922,913.299288653769,0.643518518518518,"2.1004129364155233",NA,NA,3.59953586384654
7,34,"Interrogation","21","Direct","TRUTH","Which school in NTU are you from? (Eg. NBS, SSS, SOH)",925.314892461058,928.9811705295,0.7,"1.6652553519234061",NA,NA,3.6662780684419
7,35,"Interrogation","23","Direct","LIE","What course are you studying?",943.962937429547,948.296028022654,0.741666666666667,"1.5654785656370223",NA,NA,4.33309059310704
7,36,"Interrogation","23","Indirect","TRUTH","Are you studying Maritime Studies course in NTU?",958.161675523035,962.361089546233,0.77037037037037,"2.0996892070397735",NA,NA,4.19941402319819
7,37,"Interrogation","26","Direct","TRUTH","How often do you smoke?",973.359923110344,976.193067918997,0.771296296296296,"1.4159056176431477",NA,NA,2.83314480865374
7,38,"Interrogation","3","Indirect","LIE","Is Soon Keat your closest friend back in secondary school?",989.208046803717,994.007911297027,0.267592592592593,"3.3002876308746636",NA,NA,4.79986449331045
7,39,"Interrogation","6","Indirect","TRUTH","Were you in the Choir CCA during secondary school?",1007.27304897876,1011.53938998887,0.774074074074074,"1.8494335282593966",NA,NA,4.26634101010859
7,40,"Interrogation","12","Indirect","TRUTH","Was your favourite subject Maths back in secondary school?",1022.02162718447,1026.55472913431,0.774074074074074,"1.631674445234239",NA,NA,4.53310194984078
7,41,"Polygraph","16","Indirect","LIE","Do you have 3 siblings?",NA,NA,0.780555555555556,"2.166998910252005",1134.56033450691,1139.09361578478,4.53328127786517
7,42,"Polygraph","29","Indirect","TRUTH","Do you use a Xiaomi phone?",NA,NA,0.780555555555556,"1.2316389000043273",1148.9589418415,1152.69225532748,3.73331348598003
7,43,"Polygraph","28","Direct","TRUTH","What religion do you practice?",NA,NA,0.780555555555556,"1.5647596484050155",1162.79089358775,1166.79042136716,3.9995277794078
7,44,"Polygraph","26","Direct","LIE","How often do you smoke?",NA,NA,0.780555555555556,"1.3155722399242222",1176.45621149568,1179.42286413256,2.96665263688192
7,45,"Polygraph","12","Indirect","LIE","Was your favourite subject English back in secondary school?",NA,NA,0.780555555555556,"1.6660579983144999",1191.12139723357,1196.20406404743,5.08266681386158
7,46,"Polygraph","2","Indirect","LIE","Are you from Teck Whye Secondary School?",NA,NA,0.725925925925926,"2.59999493137002",1204.18729605014,1207.78660799423,3.59931194409728
7,47,"Polygraph","3","Direct","LIE","Who is your closest friend back in secondary school?",NA,NA,0.712962962962963,"2.002027147449553",1216.85224824445,1219.90225645667,3.0500082122162
7,48,"Polygraph","18","Indirect","TRUTH","Was the last country you visited Canada?",NA,NA,0.732407407407407,"1.5830354155041277",1228.93432959449,1233.05081759579,4.11648800130934
7,49,"Polygraph","8","Direct","LIE","What is your favourite food?",NA,NA,0.732407407407407,"1.5154860722832382",1244.99937411537,1248.23273411812,3.23336000274867
7,50,"Polygraph","1","Indirect","TRUTH","Are you from Teck Whye Primary School?",NA,NA,0.732407407407407,"1.031657378654927",1255.68172372039,1259.2817083858,3.59998466540128
7,51,"Polygraph","6","Direct","TRUTH","What CCA (Co-curricular Activity) did you join in secondary school?",NA,NA,0.732407407407407,"1.6320494622923434",1268.68085883837,1271.61365596205,2.93279712367803
7,52,"Polygraph","15","Direct","LIE","Which polytechnic or junior college are you from?",NA,NA,0.732407407407407,"1.6313052019104362",1281.89598926995,1285.8956087986,3.99961952865124
7,53,"Polygraph","23","Direct","TRUTH","What course are you studying?",NA,NA,0.732407407407407,"1.1825963011942804",1293.42804797133,1297.29454816319,3.86650019185618
7,54,"Polygraph","27","Direct","TRUTH","How frequently do you drink alcohol?",NA,NA,0.732407407407407,"0.6653082841075957",1306.01025379309,1309.1764984983,3.16624470520765
7,55,"Polygraph","4","Direct","TRUTH","Who is your favourite teacher in secondary school?",NA,NA,0.732407407407407,"1.4482957073487341",1319.20865825238,1322.32483603805,3.11617778567597
7,56,"Polygraph","29","Indirect","LIE","Do you use a Apple phone?",NA,NA,0.732407407407407,"0.48135723639279604",1333.34082929883,1336.84054891812,3.49971961928532
7,57,"Polygraph","2","Indirect","TRUTH","Are you from Yishun Secondary School?",NA,NA,0.746296296296296,"6.551757866516709",1345.60607926128,1348.92262224806,3.31654298678041
7,58,"Polygraph","3","Direct","TRUTH","Who is your closest friend back in secondary school?",NA,NA,0.157407407407407,"2.933967729564756",1361.50479791407,1365.80446832208,4.29967040801421
7,59,"Polygraph","18","Direct","LIE","What was the last country you visited?",NA,NA,0.630555555555556,"2.099505066871643",1375.51971007232,1379.53618068621,4.0164706138894
7,60,"Polygraph","21","Direct","LIE","Which school in NTU are you from? (Eg. NBS, SSS, SOH)",NA,NA,0.655555555555556,"1.88184735737741",1389.63507719152,1393.25172944367,3.61665225215256
7,61,"Polygraph","1","Direct","LIE","Which primary school are you from?",NA,NA,0.656481481481481,"1.6509116548113525",1401.03387829056,1404.86697080825,3.83309251768515
7,62,"Polygraph","27","Indirect","LIE","Do you drink alcohol socially?",NA,NA,0.656481481481481,"1.6658764244057238",1414.28278563917,1417.94882695563,3.66604131646454
7,63,"Polygraph","15","Indirect","TRUTH","Are you from Temasek Junior College?",NA,NA,0.736111111111111,"2.3839377029798925",1425.83153053327,1429.13147009443,3.29993956116959
7,64,"Polygraph","22","Direct","LIE","Which year in NTU are you currently in? (Eg. 1, 2, 3, 4)",NA,NA,0.736111111111111,"1.4817563137039542",1438.48028928647,1441.87975604925,3.39946676278487
7,65,"Polygraph","23","Indirect","LIE","Are you studying Chemistry course in NTU?",NA,NA,0.185185185185185,"2.266709611285478",1450.46253899345,1454.01235793298,3.54981893952936
7,66,"Polygraph","26","Indirect","TRUTH","Do you smoke regularly?",NA,NA,0.771296296296296,"1.865669314749539",1463.21113612643,1466.19372941274,2.98259328631684
7,67,"Polygraph","4","Indirect","LIE","Is Mr Foo your favourite teacher in secondary school?",NA,NA,0.771296296296296,"1.7811803459189832",1474.79325629398,1479.45954815717,4.66629186319187
7,68,"Polygraph","21","Indirect","TRUTH","Are you from School of Civil Engineering in NTU?",NA,NA,0.771296296296296,"1.597187593113631",1488.82500221347,1493.29165003868,4.46664782520384
7,69,"Polygraph","30","Direct","LIE","What brand of laptop do you mainly use?",NA,NA,0.916666666666667,"2.6996600781567395",1501.3907008497,1505.44048000965,4.04977915994823
7,70,"Polygraph","19","Indirect","TRUTH","Is the Serangoon station the closest MRT to your house?",NA,NA,0.964814814814815,"2.002661052159965",1515.93902709754,1520.3389275847,4.39990048715845
7,71,"Polygraph","20","Direct","LIE","Which floor of the building is your house on?",NA,NA,0.112037037037037,"2.2834381498396397",1529.73803055845,1533.93765085703,4.19962029857561
7,72,"Polygraph","12","Direct","TRUTH","What was your favourite subject back in secondary school?",NA,NA,0.757407407407407,"1.8993977904319763",1543.55327429716,1546.75309124775,3.19981695059687
7,73,"Polygraph","19","Indirect","LIE","Is the Chua Chu Kang station the closest MRT to your house?",NA,NA,0.82962962962963,"2.0365617983043194",1555.5017060251,1559.85136411432,4.34965808922425
7,74,"Polygraph","28","Indirect","LIE","Is your religion Catholicism?",NA,NA,0.232407407407407,"1.834203775972128",1574.58321827231,1578.29952700948,3.71630873717368
7,75,"Polygraph","16","Indirect","TRUTH","Do you have 1 sibling?",NA,NA,0.655555555555556,"1.549559410661459",1586.38182618469,1589.31518791942,2.93336173472926
7,76,"Polygraph","20","Direct","TRUTH","Which floor of the building is your house on?",NA,NA,0.710185185185185,"1.665120935998857",1597.38072294649,1600.79757525073,3.41685230424628
7,77,"Polygraph","22","Indirect","TRUTH","Are you in your 1st year in NTU?",NA,NA,0.723148148148148,"2.1996286399662495",1609.46309045237,1613.04623205308,3.58314160071313
7,78,"Polygraph","8","Indirect","TRUTH","Do you like all food equally?",NA,NA,0.182407407407407,"1.9485863540321589",1622.39539674856,1627.07828626316,4.68288951460272
7,79,"Polygraph","6","Indirect","LIE","Were you in the Boy's Brigade CCA during secondary school?",NA,NA,0.427777777777778,"1.0982715832069516",1635.91071343794,1640.11037768656,4.19966424861923
7,80,"Polygraph","30","Direct","TRUTH","What brand of laptop do you mainly use?",NA,NA,0.775925925925926,"1.0153182931244373",1648.77573537454,1652.64232667396,3.86659129941836
8,1,"Interrogation","19","Indirect","TRUTH","Is the Bukit Panjang station the closest MRT to your house?",477.017457080074,483.966266391333,0.966666666666667,"7.849368084222078",NA,NA,6.94880931125954
8,2,"Interrogation","5","Indirect","TRUTH","Is your favourite country Japan?",512.596962069627,519.463192146271,0.951851851851852,"4.399455534759909",NA,NA,6.86623007664457
8,3,"Interrogation","21","Indirect","TRUTH","Are you from School of Humanities in NTU?",548.193274836056,554.892965069972,0.939814814814815,"3.3838616725988686",NA,NA,6.69969023391604
8,4,"Interrogation","12","Direct","TRUTH","What was your favourite subject back in secondary school?",574.707630723715,580.273747685365,0.982407407407407,"6.982263822108507",NA,NA,5.56611696165055
8,5,"Interrogation","15","Indirect","TRUTH","Are you from Innova Junior College?",600.937865473796,605.837553910911,0.957407407407407,"2.7346971053630114",NA,NA,4.8996884371154
8,6,"Interrogation","29","Indirect","LIE","Do you use a Apple phone?",627.385142955929,632.118099389598,0.669444444444445,"3.2678439673036337",NA,NA,4.73295643366873
8,7,"Interrogation","3","Direct","LIE","Who is your closest friend back in secondary school?",648.683072371874,654.582860899158,0.568518518518519,"2.4006094592623413",NA,NA,5.89978852728382
8,8,"Interrogation","4","Indirect","LIE","Is Mrs Lee your favourite teacher in secondary school?",678.313781523611,683.946284920909,0.626851851851852,"3.234250548761338",NA,NA,5.63250339729711
8,9,"Interrogation","5","Indirect","LIE","Is your favourite country Taiwan?",703.561022626702,708.394082422834,0.642592592592593,"2.901469850447029",NA,NA,4.83305979613215
