item,style,condition,question,respond,video,bitalino,trials_3.thisRepN,trials_3.thisTrialN,trials_3.thisN,trials_3.thisIndex,Trialsloop.thisRepN,Trialsloop.thisTrialN,Trialsloop.thisN,Trialsloop.thisIndex,trials_2.thisRepN,trials_2.thisTrialN,trials_2.thisN,trials_2.thisIndex,trials.thisRepN,trials.thisTrialN,trials.thisN,trials.thisIndex,IDRESPONSE.text,sensor2.started,sensor2.stopped,sensor3.started,sensor3.stopped,sensor.started,sensor.stopped,sensor4.started,sensor4.stopped,textsubjresp.started,textsubjresp.stopped,SubjectiveResponse.response,SubjectiveResponse.rt,SubjectiveResponse.started,SubjectiveResponse.stopped,textsubjcon.started,textsubjcon.stopped,sensor5.started,sensor5.stopped,sensor1.started,sensor1.stopped,sensor6.started,sensor6.stopped,participant,session,date,expName,psychopyVersion,frameRate,
1,directx,TRUTH ,What is your favourite song?,"My favourite song is "Perfect" by Ed Sheeran",,,0,0,0,0,,,,,,,,,,,,,ID 021,,,,,,,,,,,,,,,,,,,,,,,021,001,2021_Feb_18_1414,deception_task,2020.2.10,59.96852660209854,
2,indirectx,LIE,What is your favourite tv-show/tv-drama?,"My favourite drama is F.R.I.E.N.D.S",,,0,1,1,1,,,,,,,,,,,,,,,,,,,,,,,,,,,,,,,,,,,,021,001,2021_Feb_18_1414,deception_task,2020.2.10,59.96852660209854,
3,directx,TRUTH ,Is George Washington your role model in life?,""No, my role model is Lee Kuan Yew"",,,0,2,2,2,,,,,,,,,,,,,,,,,,,,,,,,,,,,,,,,,,,,021,001,2021_Feb_18_1414,deception_task,2020.2.10,59.96852660209854,
4,indirectx,LIE,Is MacDonalds your favourite restaurant?,""Yes, MacDonalds is my favourite restaurant"",,,0,3,3,3,,,,,,,,,,,,,,,,,,,,,,,,,,,,,,,,,,,,021,001,2021_Feb_18_1414,deception_task,2020.2.10,59.96852660209854,
5,directx,TRUTH ,Who is your favourite celebrity?,"My favourite celebrity is Chris Hemsworth",,,0,4,4,4,,,,,,,,,,,,,,,,,,,,,,,,,,,,,,,,,,,,021,001,2021_Feb_18_1414,deception_task,2020.2.10,59.96852660209854,
1,directx,TRUTH ,What is your favourite song?,"My favourite song is "Perfect" by Ed Sheeran",,,,,,,0,0,0,0,,,,,,,,,,,,,,,,,,,,,,,,,,,,,,,,021,001,2021_Feb_18_1414,deception_task,2020.2.10,59.96852660209854,
2,indirectx,LIE,What is your favourite tv-show/tv-drama?,"My favourite drama is F.R.I.E.N.D.S",,,,,,,0,1,1,1,,,,,,,,,,,,,,,,,,,,,,,,,,,,,,,,021,001,2021_Feb_18_1414,deception_task,2020.2.10,59.96852660209854,
3,directx,TRUTH ,Is George Washington your role model in life?,""No, my role model is Lee Kuan Yew"",,,,,,,0,2,2,2,,,,,,,,,,,,,,,,,,,,,,,,,,,,,,,,021,001,2021_Feb_18_1414,deception_task,2020.2.10,59.96852660209854,
4,indirectx,LIE,Is MacDonalds your favourite restaurant?,""Yes, MacDonalds is my favourite restaurant"",,,,,,,0,3,3,3,,,,,,,,,,,,,,,,,,,,,,,,,,,,,,,,021,001,2021_Feb_18_1414,deception_task,2020.2.10,59.96852660209854,
5,directx,TRUTH ,Who is your favourite celebrity?,"My favourite celebrity is Chris Hemsworth",,,,,,,0,4,4,4,,,,,,,,,,,,,,,,,,,,,,,,,,,,,,,,021,001,2021_Feb_18_1414,deception_task,2020.2.10,59.96852660209854,
12,Direct,LIE,What was your favourite subject back in secondary school?,,video/V19.mp4,,,,,,,,,,0,0,0,0,,,,,,323.1616517836228,323.6784624475986,327.97745628422126,328.4778207154013,332.3605743381195,332.8938459921628,339.2764488379471,339.77669778000563,341.40983925247565,None,0.7148148148148148,7.482833887450397,341.40983925247565,None,341.40983925247565,None,,,,,,,021,001,2021_Feb_18_1414,deception_task,2020.2.10,59.96852660209854,
4,Indirect,LIE,Is Mrs Raj your favourite teacher in secondary school?,,video/V32.mp4,,,,,,,,,,0,1,1,1,,,,,,349.85885772667825,350.39218840841204,362.5912286969833,363.09107952425256,366.14072940079495,366.6741168643348,372.5064949565567,373.0068532922305,374.5232417806983,None,0.49537037037037035,3.5500845634378493,374.5232417806983,None,374.5232417806983,None,,,,,,,021,001,2021_Feb_18_1414,deception_task,2020.2.10,59.96852660209854,
6,Direct,LIE,What CCA (Co-curricular Activity) did you join in secondary school?,,video/V15.mp4,,,,,,,,,,0,2,2,2,,,,,,379.6559078246355,380.1558289071545,394.8881402085535,395.3877148251049,398.10435719648376,398.63744278484955,403.2370437714271,403.7366565633565,405.0867563970387,None,0.6305555555555555,2.583430322352797,405.0867563970387,None,405.0867563970387,None,,,,,,,021,001,2021_Feb_18_1414,deception_task,2020.2.10,59.96852660209854,
22,Indirect,LIE,Are you in your 3rd year in NTU?,,video/V9.mp4,,,,,,,,,,0,3,3,3,,,,,,410.28613481111825,410.81932626478374,415.6688576368615,416.16881240392104,419.0854314849712,419.6185841211118,423.9850454959087,424.48476222809404,426.2681506536901,None,0.3907407407407407,3.8494944805279374,426.2681506536901,None,426.2681506536901,None,,,,,,,021,001,2021_Feb_18_1414,deception_task,2020.2.10,59.96852660209854,
1,Direct,TRUTH,Which primary school are you from?,,video/V33.mp4,,,,,,,,,,0,4,4,4,,,,,,433.43416245654225,433.9671659199521,437.8335698712617,438.3334964076057,441.4163473616354,441.94985159719363,447.9820382986218,448.4824563036673,450.1986004691571,None,0.6925925925925926,1.2150989933870733,450.1986004691571,None,450.1986004691571,None,,,,,,,021,001,2021_Feb_18_1414,deception_task,2020.2.10,59.96852660209854,
8,Indirect,LIE,Is your favourite food Sushi?,,video/V1.mp4,,,,,,,,,,0,5,5,5,,,,,,454.91522712120786,455.44858186272904,459.08150647301227,459.58136211242527,462.4977729925886,463.03112997999415,466.1472452096641,466.6471387031488,467.94722294574603,None,0.6203703703703703,2.4005212392657995,467.94722294574603,None,467.94722294574603,None,,,,,,,021,001,2021_Feb_18_1414,deception_task,2020.2.10,59.96852660209854,
29,Direct,TRUTH,What brand of handphone do you use?,,video/V27.mp4,,,,,,,,,,0,6,6,6,,,,,,473.26343005290255,473.7633581934497,479.479127983097,479.9790266100317,482.7123696100898,483.2457265970297,487.4783179583028,487.9784870208241,489.828218894545,None,0.7074074074074074,1.9815307897515595,489.828218894545,None,489.828218894545,None,,,,,,,021,001,2021_Feb_18_1414,deception_task,2020.2.10,59.96852660209854,
3,Direct,LIE,Who is your closest friend back in secondary school?,,video/V24.mp4,,,,,,,,,,0,7,7,7,,,,,,494.16106856567785,494.66121709672734,499.29411475965753,499.7940230104141,502.9934713593684,503.5268482360989,509.3264580126852,509.82626392738894,511.15942349331453,None,0.6425925925925926,2.9667697297409177,511.15942349331453,None,511.15942349331453,None,,,,,,,021,001,2021_Feb_18_1414,deception_task,2020.2.10,59.96852660209854,
20,Indirect,LIE,Is your house on the 5th floor of the building?,,video/V31.mp4,,,,,,,,,,0,8,8,8,,,,,,517.4755821591243,518.0086674271151,525.6413713255897,526.1411448395811,528.8745038798079,529.4078881349415,535.0739336223342,535.5737597476691,536.8070132439025,None,0.5944444444444444,2.3008663575164974,536.8070132439025,None,536.8070132439025,None,,,,,,,021,001,2021_Feb_18_1414,deception_task,2020.2.10,59.96852660209854,
14,Indirect,TRUTH,Is your favourite flavour Vanilla?,,video/V36.mp4,,,,,,,,,,0,9,9,9,,,,,,541.0067082894966,541.523205850739,553.1886581750587,553.6886353981681,556.2051076162606,556.7381778066047,562.2043598266318,562.7043749047443,564.0043548867106,None,0.7111111111111111,5.517206854652613,564.0043548867106,None,564.0043548867106,None,,,,,,,021,001,2021_Feb_18_1414,deception_task,2020.2.10,59.96852660209854,
4,Indirect,TRUTH,Is Mr Teo your favourite teacher in secondary school?,,video/V11.mp4,,,,,,,,,,0,10,10,10,,,,,,571.0701892217621,571.586762492545,596.8675379860215,597.3675148882903,600.0840209187008,600.6172637003474,606.1835538954474,606.683410176076,608.333327665925,None,0.2898148148148148,1.7647373210638762,608.333327665925,None,608.333327665925,None,,,,,,,021,001,2021_Feb_18_1414,deception_task,2020.2.10,59.96852660209854,
20,Direct,TRUTH,Which floor of the building is your house on?,,video/V21.mp4,,,,,,,,,,0,11,11,11,,,,,,611.7493202206679,612.2828770675696,617.8157557388768,618.3156546861865,621.3483360642567,621.8820048710331,626.7812201255001,627.2810244360007,629.0977371269837,None,0.6388888888888888,3.634470555000007,629.0977371269837,None,629.0977371269837,None,,,,,,,021,001,2021_Feb_18_1414,deception_task,2020.2.10,59.96852660209854,
23,Direct,LIE,What course are you studying?,,video/V18.mp4,,,,,,,,,,0,12,12,12,,,,,,634.2970372657292,634.8137706164271,656.011669812724,656.5117034967989,659.7612579027191,660.2945642033592,666.8606866188347,667.3603584384546,669.0937229325064,None,0.7037037037037037,1.3153974027372897,669.0937229325064,None,669.0937229325064,None,,,,,,,021,001,2021_Feb_18_1414,deception_task,2020.2.10,59.96852660209854,
15,Direct,LIE,Which polytechnic or junior college are you from?,,video/V14.mp4,,,,,,,,,,0,13,13,13,,,,,,671.5435668299906,672.0600435393862,684.0587638602592,684.558569774963,687.5414867503569,688.0748110157438,694.1410890198313,694.6576106413268,695.9576098714024,None,0.6157407407407407,2.71733017032966,695.9576098714024,None,695.9576098714024,None,,,,,,,021,001,2021_Feb_18_1414,deception_task,2020.2.10,59.96852660209854,
15,Direct,TRUTH,Which polytechnic or junior college are you from?,,video/V20.mp4,,,,,,,,,,0,14,14,14,,,,,,702.023742552381,702.5237996554933,708.7232412672602,709.2231559338979,712.3891398273408,712.9225802230649,717.2886701091193,717.7884493973106,719.5054282899946,None,0.43333333333333335,4.599864043761045,719.5054282899946,None,719.5054282899946,None,,,,,,,021,001,2021_Feb_18_1414,deception_task,2020.2.10,59.96852660209854,
6,Indirect,TRUTH,Were you in the Badminton CCA during secondary school?,,video/V30.mp4,,,,,,,,,,0,15,15,15,,,,,,725.4548512953334,725.9713562349789,733.4539549746551,733.9540550648235,736.7869002446532,737.320389402099,743.186060000211,743.6861588070169,745.2360964431427,None,0.6166666666666667,3.732040864881128,745.2360964431427,None,745.2360964431427,None,,,,,,,021,001,2021_Feb_18_1414,deception_task,2020.2.10,59.96852660209854,
2,Indirect,TRUTH,Are you from Pasir Ris Secondary School?,,video/V34.mp4,,,,,,,,,,0,16,16,16,,,,,,753.26837778138,753.8020953498781,757.9014396951534,758.4014971186407,761.0180451096967,761.5512044830248,767.9835197618231,768.4839143482968,769.6838849629276,None,0.7212962962962963,1.0649845311418176,769.6838849629276,None,769.6838849629276,None,,,,,,,021,001,2021_Feb_18_1414,deception_task,2020.2.10,59.96852660209854,
3,Indirect,TRUTH,Is Derrick your closest friend back in secondary school?,,video/V8.mp4,,,,,,,,,,0,17,17,17,,,,,,773.2001223536208,773.6996892713942,779.749275628943,780.2489249925129,782.9488583942875,783.4822910907678,789.8150162901729,790.3148773829453,792.2813420300372,None,0.6675925925925926,1.8815381042659283,792.2813420300372,None,792.2813420300372,None,,,,,,,021,001,2021_Feb_18_1414,deception_task,2020.2.10,59.96852660209854,
23,Direct,TRUTH,What course are you studying?,,video/V2.mp4,,,,,,,,,,0,18,18,18,,,,,,795.9310574145056,796.4642934594303,802.2470094840974,802.7467842809856,805.4298633895814,805.9633961762302,810.7292088251561,811.2292903088965,813.1460858313367,None,0.6703703703703704,2.382987807970494,813.1460858313367,None,813.1460858313367,None,,,,,,,021,001,2021_Feb_18_1414,deception_task,2020.2.10,59.96852660209854,
9,Direct,TRUTH,What is your favourite drink?,,video/V12.mp4,,,,,,,,,,0,19,19,19,,,,,,816.9623083369806,817.4788065399043,826.4780186503194,826.9779336377978,829.8776066764258,830.4110249364749,834.9770684349351,835.4769705901854,837.1937736831605,None,0.6703703703703704,1.9817845444194973,837.1937736831605,None,837.1937736831605,None,,,,,,,021,001,2021_Feb_18_1414,deception_task,2020.2.10,59.96852660209854,
8,Indirect,TRUTH,Is your favourite food Roast Pork?,,video/V40.mp4,,,,,,,,,,0,20,20,20,,,,,,841.2261932869442,841.759706504643,852.0086863543838,852.5084322793409,855.4918634998612,856.0252432641573,859.0248108231463,859.5248461114243,861.3911364986561,None,0.8305555555555555,4.633072179276496,861.3911364986561,None,861.3911364986561,None,,,,,,,021,001,2021_Feb_18_1414,deception_task,2020.2.10,59.96852660209854,
7,Direct,LIE,What is your favourite sport?,,video/V26.mp4,,,,,,,,,,0,21,21,21,,,,,,867.2071248190477,867.7068203776143,874.7732568583451,875.2732334397733,878.405885047745,878.9392356188037,882.605561486911,883.1056833914481,884.455611595884,None,0.2833333333333333,1.9145396430976689,884.455611595884,None,884.455611595884,None,,,,,,,021,001,2021_Feb_18_1414,deception_task,2020.2.10,59.96852660209854,
16,Direct,LIE,"How many siblings do you have? (Eg. 0, 1, 2, 3)",,video/V7.mp4,,,,,,,,,,0,22,22,22,,,,,,887.6382852108218,888.155345779378,893.8546722237952,894.354425847996,897.3211683095433,897.8537242538296,901.1872113584541,901.6870195190422,902.8535269605927,None,0.674074074074074,1.7988443430513144,902.8535269605927,None,902.8535269605927,None,,,,,,,021,001,2021_Feb_18_1414,deception_task,2020.2.10,59.96852660209854,
21,Indirect,LIE,Are you from Nanyang Business School in NTU?,,video/V16.mp4,,,,,,,,,,0,23,23,23,,,,,,906.286594520323,906.7863057986833,911.0694026155397,911.5692588961683,914.4025833541527,914.9357430478558,918.53560580872,919.0352991223335,920.8020183574408,None,0.37962962962962965,2.133026625495404,920.8020183574408,None,920.8020183574408,None,,,,,,,021,001,2021_Feb_18_1414,deception_task,2020.2.10,59.96852660209854,
19,Indirect,TRUTH,Is the Redhill station the closest MRT to your house?,,video/V6.mp4,,,,,,,,,,0,24,24,24,,,,,,924.4516121582128,924.9681267216802,927.7841942803934,928.2841025306843,931.4341217149049,931.9676041356288,937.033683242742,937.5334840244614,939.5166852301918,None,0.6824074074074074,2.100974339991808,939.5166852301918,None,939.5166852301918,None,,,,,,,021,001,2021_Feb_18_1414,deception_task,2020.2.10,59.96852660209854,
16,Indirect,TRUTH,Do you have 1 sibling?,,video/V25.mp4,,,,,,,,,,0,25,25,25,,,,,,943.8829274973832,944.3829326303676,947.0991220292635,947.5991037436761,950.3153961198404,950.8487790920772,955.1814860058948,955.6817333442159,957.1150158410892,None,0.6453703703703704,7.2671969095245,957.1150158410892,None,957.1150158410892,None,,,,,,,021,001,2021_Feb_18_1414,deception_task,2020.2.10,59.96852660209854,
29,Indirect,LIE,Do you use a Apple phone?,,video/V3.mp4,,,,,,,,,,0,26,26,26,,,,,,965.5806614807807,966.0972215984948,969.5804365985096,970.0968738491647,973.3301693703979,973.8633868088946,976.6296970215626,977.1294663650915,978.9128932869062,None,0.6962962962962963,2.7676620725542307,978.9128932869062,None,978.9128932869062,None,,,,,,,021,001,2021_Feb_18_1414,deception_task,2020.2.10,59.96852660209854,
13,Indirect,LIE,Is your dream job a Teacher when you were growing up?,,video/V17.mp4,,,,,,,,,,0,27,27,27,,,,,,982.6789507078938,983.1956616025418,989.3118721102364,989.8116039200686,992.9449253622442,993.4777450058609,998.2437591189519,998.7437417954206,1000.2601318880916,None,0.6962962962962963,1.799777876585722,1000.2601318880916,None,1000.2601318880916,None,,,,,,,021,001,2021_Feb_18_1414,deception_task,2020.2.10,59.96852660209854,
12,Indirect,TRUTH,Was your favourite subject English back in secondary school?,,video/V10.mp4,,,,,,,,,,0,28,28,28,,,,,,1004.6769296559505,1005.2100146031007,1008.7096828934737,1009.2094464628026,1012.3591345790774,1012.8927241475321,1019.7920616273768,1020.2921373364516,1021.4584006480873,None,0.5666666666666667,3.0001639300026,1021.4584006480873,None,1021.4584006480873,None,,,,,,,021,001,2021_Feb_18_1414,deception_task,2020.2.10,59.96852660209854,
21,Indirect,TRUTH,Are you from School of Humanities in NTU?,,video/V23.mp4,,,,,,,,,,0,29,29,29,,,,,,1025.6415362181142,1026.141241721809,1028.6910664355382,1029.1910888915882,1031.9741401546635,1032.5073935226537,1037.4400158091448,1037.9567504432052,1039.173562518321,None,0.662037037037037,3.1843356895260513,1039.173562518321,None,1039.173562518321,None,,,,,,,021,001,2021_Feb_18_1414,deception_task,2020.2.10,59.96852660209854,
27,Direct,TRUTH,How frequently do you drink alcohol?,,video/V38.mp4,,,,,,,,,,0,30,30,30,,,,,,1043.3896765289828,1043.8893387243152,1047.9887783476152,1048.4889008938335,1050.9887286233716,1051.522135334555,1054.588197760284,1055.088301058393,1056.188502265606,None,0.48703703703703705,3.216204476542771,1056.188502265606,None,1056.188502265606,None,,,,,,,021,001,2021_Feb_18_1414,deception_task,2020.2.10,59.96852660209854,
22,Direct,TRUTH,"Which year in NTU are you currently in? (Eg. 1, 2, 3, 4)",,video/V35.mp4,,,,,,,,,,0,31,31,31,,,,,,1060.3874642788433,1060.9046252584085,1062.5045358189382,1063.0044787158258,1065.6706971153617,1066.2037955364212,1070.9702507518232,1071.4701172979549,1073.0864991140552,None,0.6398148148148148,3.734378549270332,1073.0864991140552,None,1073.0864991140552,None,,,,,,,021,001,2021_Feb_18_1414,deception_task,2020.2.10,59.96852660209854,
13,Direct,TRUTH,What is your dream job growing up?,,video/V22.mp4,,,,,,,,,,0,32,32,32,,,,,,1077.702476077713,1078.2024385440163,1080.4858353105374,1080.9857804533094,1083.485707310494,1084.0187925784849,1089.951610233169,1090.4517083987594,1092.334718984086,None,0.26481481481481484,5.467163674067706,1092.334718984086,None,1092.334718984086,None,,,,,,,021,001,2021_Feb_18_1414,deception_task,2020.2.10,59.96852660209854,
7,Indirect,TRUTH,Is your favourite sport Floorball?,,video/V28.mp4,,,,,,,,,,0,33,33,33,,,,,,1098.8505171970464,1099.3672110890038,1100.7170594139025,1101.2171838851646,1104.116936482489,1104.6501484671608,1108.9826981881633,1109.482670599129,1111.2330023082905,None,0.6453703703703704,2.867496602702886,1111.2330023082905,None,1111.2330023082905,None,,,,,,,021,001,2021_Feb_18_1414,deception_task,2020.2.10,59.96852660209854,
9,Indirect,LIE,Is your favourite drink Coke Light?,,video/V13.mp4,,,,,,,,,,0,34,34,34,,,,,,1117.4485847502947,1117.96532259183,1124.8316049594432,1125.347917097155,1128.4475264246576,1128.9812077423558,1134.647150572855,1135.1468195053749,1137.013845170848,None,0.3666666666666667,5.533759272657335,1137.013845170848,None,1137.013845170848,None,,,,,,,021,001,2021_Feb_18_1414,deception_task,2020.2.10,59.96852660209854,
2,Indirect,LIE,Are you from St. Margaret's Secondary School?,,video/V39.mp4,,,,,,,,,,0,35,35,35,,,,,,1143.3961496707052,1143.929376412183,1173.2433895547874,1173.7433148082346,1176.2262317831628,1176.7594588454813,1181.392458202783,1181.8924225936644,1183.15886593936,None,0.6268518518518519,2.533506801351905,1183.15886593936,None,1183.15886593936,None,,,,,,,021,001,2021_Feb_18_1414,deception_task,2020.2.10,59.96852660209854,
19,Indirect,LIE,Is the Beauty World station the closest MRT to your house?,,video/V5.mp4,,,,,,,,,,0,36,36,36,,,,,,1186.625184621662,1187.1252946564928,1192.974707011599,1193.4746579290368,1196.324355156161,1196.8576412457041,1201.2904175175354,1201.79031389812,1203.4900711793453,None,0.6240740740740741,2.402242662385106,1203.4900711793453,None,1203.4900711793453,None,,,,,,,021,001,2021_Feb_18_1414,deception_task,2020.2.10,59.96852660209854,
1,Indirect,LIE,Are you from Yishun Primary School?,,video/V4.mp4,,,,,,,,,,0,37,37,37,,,,,,1207.9232308091596,1208.4231008845381,1210.2062490293756,1210.7060543028638,1213.3224024344236,1213.8558245445602,1217.6886655534618,1218.188521834556,1220.0384019184858,None,0.34444444444444444,3.0665968814864755,1220.0384019184858,None,1220.0384019184858,None,,,,,,,021,001,2021_Feb_18_1414,deception_task,2020.2.10,59.96852660209854,
27,Indirect,LIE,Do you not drink alcohol at all? ,,video/V29.mp4,,,,,,,,,,0,38,38,38,,,,,,1224.421562639065,1224.9210394113325,1229.037674981635,1229.53771443991,1232.0707894423977,1232.60417594295,1237.2036226238124,1237.703725922387,1239.436424431391,None,0.6768518518518518,1.6160581265576184,1239.436424431391,None,1239.436424431391,None,,,,,,,021,001,2021_Feb_18_1414,deception_task,2020.2.10,59.96852660209854,
14,Indirect,LIE,Is your favourite flavour Coffee?,,video/V37.mp4,,,,,,,,,,0,39,39,39,,,,,,1242.969320104923,1243.5029905159026,1246.6522625521757,1247.1525884866714,1249.7354532354511,1250.2685279166326,1255.0350261195563,1255.5351470620371,1257.4350308673456,None,0.6666666666666666,0.8491608458571136,1257.4350308673456,None,1257.4350308673456,None,,,,,,,021,001,2021_Feb_18_1414,deception_task,2020.2.10,59.96852660209854,
7,Direct,TRUTH,What is your favourite sport?,,,bit/B6.mp4,,,,,,,,,,,,,0,0,0,0,,1324.5448952708393,1325.0779837467708,,,,,,,1334.110379611142,None,0.9666666666666667,4.06610380904749,1334.110379611142,None,1334.110379611142,None,1326.9448137232102,1327.4446979137138,1328.8276408095844,1329.3609618670307,1332.5107596972957,1333.0104924696498,021,001,2021_Feb_18_1414,deception_task,2020.2.10,59.96852660209854,
23,Indirect,TRUTH,Are you studying Linguistics and Multilingual Studies course in NTU?,,,bit/B23.mp4,,,,,,,,,,,,,0,1,1,1,,1338.8934882977046,1339.3933795457706,,,,,,,1353.0920345517807,None,0.9370370370370371,1.94934954168275,1353.0920345517807,None,1353.0920345517807,None,1343.2095067733899,1343.7095151143149,1345.359383521136,1345.892811726313,1351.1584524256177,1351.6586038442329,021,001,2021_Feb_18_1414,deception_task,2020.2.10,59.96852660209854,
15,Indirect,LIE,Are you from Catholic Junior College?,,,bit/B21.mp4,,,,,,,,,,,,,0,2,2,2,,1355.7581875072792,1356.2751912940294,,,,,,,1369.9402708467096,None,0.5638888888888889,1.5982642048038542,1369.9402708467096,None,1369.9402708467096,None,1359.957869721111,1360.4581026234664,1362.440698475577,1362.9576271949336,1367.4738190318458,1367.9738488662988,021,001,2021_Feb_18_1414,deception_task,2020.2.10,59.96852660209854,
20,Indirect,TRUTH,Is your house on the 9th floor of the building?,,,bit/B9.mp4,,,,,,,,,,,,,0,3,3,3,,1372.4064015387557,1372.9234088542871,,,,,,,1382.4389574835077,None,0.9361111111111111,3.067126846406609,1382.4389574835077,None,1382.4389574835077,None,1374.306449915748,1374.806383188814,1376.4061827519909,1376.9397880397737,1380.8391710733995,1381.338916677516,021,001,2021_Feb_18_1414,deception_task,2020.2.10,59.96852660209854,
21,Direct,LIE,"Which school in NTU are you from? (Eg. NBS, SSS, SOH)",,,bit/B14.mp4,,,,,,,,,,,,,0,4,4,4,,1386.7553561092354,1387.288547562901,,,,,,,1398.7205770071596,None,0.5453703703703704,3.583588478155434,1398.7205770071596,None,1398.7205770071596,None,1390.3547755219042,1390.8549051261507,1392.8546128752641,1393.3878299929202,1396.3208426954225,1396.8209293116815,021,001,2021_Feb_18_1414,deception_task,2020.2.10,59.96852660209854,
22,Indirect,TRUTH,Are you in your 1st year in NTU?,,,bit/B24.mp4,,,,,,,,,,,,,0,5,5,5,,1403.6866919798777,1404.1867144363932,,,,,,,1414.052522979211,None,0.7972222222222223,1.9158581388182938,1414.052522979211,None,1414.052522979211,None,1405.0202256008051,1405.5201245481148,1407.4362624264322,1407.969310801942,1411.6693933764473,1412.185923338402,021,001,2021_Feb_18_1414,deception_task,2020.2.10,59.96852660209854,
13,Indirect,TRUTH,Is your dream job a Fashion Designer when you were growing up?,,,bit/B22.mp4,,,,,,,,,,,,,0,6,6,6,,1416.718864245806,1417.2523697637953,,,,,,,1428.4675037246197,None,0.8990740740740741,4.199410173576325,1428.4675037246197,None,1428.4675037246197,None,1418.5855630137958,1419.085319204256,1421.2182229626924,1421.751981914509,1426.4512069853954,1426.951332097873,021,001,2021_Feb_18_1414,deception_task,2020.2.10,59.96852660209854,
19,Direct,LIE,Which MRT station is closest to your house?,,,bit/B5.mp4,,,,,,,,,,,,,0,7,7,7,,1433.2671279371716,1433.767137881834,,,,,,,1444.8326863828115,None,0.4287037037037037,4.484064483549446,1444.8326863828115,None,1444.8326863828115,None,1434.700516619254,1435.216805018019,1437.0335844354704,1437.5664303852245,1443.132967597805,1443.6330917482264,021,001,2021_Feb_18_1414,deception_task,2020.2.10,59.96852660209854,
2,Direct,LIE,Which secondary school did you attend?,,,bit/B39.mp4,,,,,,,,,,,,,0,8,8,8,,1450.132332409732,1450.632278515026,,,,,,,1459.89791889349,None,0.5768518518518518,3.25022391974926,1459.89791889349,None,1459.89791889349,None,1451.4155456777662,1451.915416715201,1453.581563255284,1454.0982308415696,1458.0314219095744,1458.5315232831053,021,001,2021_Feb_18_1414,deception_task,2020.2.10,59.96852660209854,
21,Direct,TRUTH,"Which school in NTU are you from? (Eg. NBS, SSS, SOH)",,,bit/B8.mp4,,,,,,,,,,,,,0,9,9,9,,1464.1809614947997,1464.6808331739157,,,,,,,1475.2962968545035,None,0.9194444444444445,2.6164171039126813,1475.2962968545035,None,1475.2962968545035,None,1465.7141484566964,1466.2140140407719,1467.89660937991,1468.429980803281,1473.6800253945403,1474.1796725126915,021,001,2021_Feb_18_1414,deception_task,2020.2.10,59.96852660209854,
2,Direct,TRUTH,Which secondary school did you attend?,,,bit/B27.mp4,,,,,,,,,,,,,0,10,10,10,,1478.6457897308283,1479.1792015754618,,,,,,,1489.9282144675963,None,0.8240740740740741,2.882971126586199,1489.9282144675963,None,1489.9282144675963,None,1479.795935310889,1480.2955355918966,1482.1286560194567,1482.6456078360789,1487.6613184702583,1488.1617043949664,021,001,2021_Feb_18_1414,deception_task,2020.2.10,59.96852660209854,
7,Indirect,LIE,Is your favourite sport Basketball?,,,bit/B25.mp4,,,,,,,,,,,,,0,11,11,11,,1493.9612593143247,1494.477703943383,,,,,,,1503.526888978202,None,0.3740740740740741,2.399283585138619,1503.526888978202,None,1503.526888978202,None,1495.5610874285921,1496.0610354589298,1498.1603182097897,1498.6941939336248,1501.7269250364043,1502.2269757231697,021,001,2021_Feb_18_1414,deception_task,2020.2.10,59.96852660209854,
8,Direct,LIE,What is your favourite food?,,,bit/B34.mp4,,,,,,,,,,,,,0,12,12,12,,1507.226356254425,1507.7597279986367,,,,,,,1518.8254551859573,None,0.6101851851851852,2.133189592510462,1518.8254551859573,None,1518.8254551859573,None,1510.3258658125997,1510.8261490804143,1512.5092987655662,1513.042749747634,1516.675632974133,1517.175442097243,021,001,2021_Feb_18_1414,deception_task,2020.2.10,59.96852660209854,
3,Direct,TRUTH,Who is your closest friend back in secondary school?,,,bit/B3.mp4,,,,,,,,,,,,,0,13,13,13,,1521.87516409019,1522.3916225135326,,,,,,,1532.2740550138988,None,0.8305555555555555,4.034685428254306,1532.2740550138988,None,1532.2740550138988,None,1523.208324618172,1523.70797301922,1525.0911074341275,1525.6079405541532,1529.9411283503287,1530.4409207915887,021,001,2021_Feb_18_1414,deception_task,2020.2.10,59.96852660209854,
12,Direct,TRUTH,What was your favourite subject back in secondary school?,,,bit/B40.mp4,,,,,,,,,,,,,0,14,14,14,,1537.0066794175655,1537.5066720391624,,,,,,,1546.8890634765849,None,0.8287037037037037,2.384420189075172,1546.8890634765849,None,1546.8890634765849,None,1538.3233285895549,1538.8232766198926,1540.27291456284,1540.8063360308297,1545.1056753713638,1545.605880684685,021,001,2021_Feb_18_1414,deception_task,2020.2.10,59.96852660209854,
1,Indirect,TRUTH,Are you from Pei Hwa Presbyterian Primary School?,,,bit/B15.mp4,,,,,,,,,,,,,0,15,15,15,,1550.4223251855,1550.9222087343223,,,,,,,1562.9545320975594,None,0.8324074074074075,2.0021596387960017,1562.9545320975594,None,1562.9545320975594,None,1552.3049870589748,1552.805236321874,1554.7382175857201,1555.2719515152276,1560.4879012750462,1560.987680242397,021,001,2021_Feb_18_1414,deception_task,2020.2.10,59.96852660209854,
13,Direct,LIE,What is your dream job growing up?,,,bit/B31.mp4,,,,,,,,,,,,,0,16,16,16,,1566.5873540509492,1567.1040039933287,,,,,,,1576.953064749483,None,0.5657407407407408,2.1001627105288208,1576.953064749483,None,1576.953064749483,None,1567.7369873104617,1568.236873746384,1570.1702592209913,1570.7036197367124,1574.969675233122,1575.4695937493816,021,001,2021_Feb_18_1414,deception_task,2020.2.10,59.96852660209854,
20,Direct,LIE,Which floor of the building is your house on?,,,bit/B16.mp4,,,,,,,,,,,,,0,17,17,17,,1580.2024857020006,1580.7357775662094,,,,,,,1593.5845595453866,None,0.6046296296296296,1.3325542123056948,1593.5845595453866,None,1593.5845595453866,None,1583.435750426259,1583.9353808625601,1585.9522656318732,1586.4853701475076,1591.1013461491093,1591.6012736479752,021,001,2021_Feb_18_1414,deception_task,2020.2.10,59.96852660209854,
27,Indirect,TRUTH,Do you drink alcohol socially?,,,bit/B19.mp4,,,,,,,,,,,,,0,18,18,18,,1595.7010263735428,1596.2007373310626,,,,,,,1606.0498516610824,None,0.8805555555555555,2.48475420800969,1606.0498516610824,None,1606.0498516610824,None,1597.8508376781829,1598.3508726456203,1600.2173542305827,1600.7505286815576,1604.4835354811512,1604.983589696698,021,001,2021_Feb_18_1414,deception_task,2020.2.10,59.96852660209854,
15,Indirect,TRUTH,Are you from Temasek Polytechnic?,,,bit/B20.mp4,,,,,,,,,,,,,0,19,19,19,,1609.2660965588875,1609.7829630421475,,,,,,,1623.3150573531166,None,0.7861111111111111,3.217285900376737,1623.3150573531166,None,1623.3150573531166,None,1612.9158809157088,1613.4159036925994,1615.5323734083213,1616.0655436888337,1620.8819647706114,1621.3818576228805,021,001,2021_Feb_18_1414,deception_task,2020.2.10,59.96852660209854,
8,Direct,TRUTH,What is your favourite food?,,,bit/B30.mp4,,,,,,,,,,,,,0,20,20,20,,1627.7309886347502,1628.2645749952644,,,,,,,1637.1801626980305,None,0.8064814814814815,2.8996339007280767,1637.1801626980305,None,1637.1801626980305,None,1628.931149163749,1629.4309698357247,1631.4974595694803,1632.0306840650737,1634.9138284246437,1635.4137126151472,021,001,2021_Feb_18_1414,deception_task,2020.2.10,59.96852660209854,
29,Direct,LIE,What brand of handphone do you use?,,,bit/B29.mp4,,,,,,,,,,,,,0,21,21,21,,1641.863153906539,1642.3630114705302,,,,,,,1652.1285697235726,None,0.4185185185185185,2.8003989490680397,1652.1285697235726,None,1652.1285697235726,None,1643.3128053233959,1643.8129740650766,1645.9289975450374,1646.4458056427538,1650.5786760374904,1651.078613160178,021,001,2021_Feb_18_1414,deception_task,2020.2.10,59.96852660209854,
23,Indirect,LIE,Are you studying Sociology course in NTU?,,,bit/B18.mp4,,,,,,,,,,,,,0,22,22,22,,1655.6281834780239,1656.1451160470024,,,,,,,1666.5439078425989,None,0.6037037037037037,2.550568974111229,1666.5439078425989,None,1666.5439078425989,None,1657.5447820280679,1658.0446812962182,1659.8779403101653,1660.4109941395,1664.7108361767605,1665.2105888384394,021,001,2021_Feb_18_1414,deception_task,2020.2.10,59.96852660209854,
4,Direct,LIE,Who is your favourite teacher in secondary school?,,,bit/B2.mp4,,,,,,,,,,,,,0,23,23,23,,1670.0770855015144,1670.5936395237222,,,,,,,1680.6757914503105,None,0.5018518518518519,2.766396187711507,1680.6757914503105,None,1680.6757914503105,None,1671.2931196321733,1671.7932700882666,1673.3765512378886,1673.9099332476035,1678.7258673524484,1679.2258991114795,021,001,2021_Feb_18_1414,deception_task,2020.2.10,59.96852660209854,
29,Indirect,TRUTH,Do you use a Samsung phone?,,,bit/B35.mp4,,,,,,,,,,,,,0,24,24,24,,1684.2753991740756,1684.7754508228973,,,,,,,1693.0744619830512,None,0.9666666666666667,1.7322882036678493,1693.0744619830512,None,1693.0744619830512,None,1685.5922135589644,1686.0918545816094,1687.6582900998183,1688.192007026635,1691.2080320469104,1691.7079441472888,021,001,2021_Feb_18_1414,deception_task,2020.2.10,59.96852660209854,
14,Direct,TRUTH,"What is your favourite flavour?(E.g. chocolate, vanilla, milktea; it can be a complicated flavour)",,,bit/B7.mp4,,,,,,,,,,,,,0,25,25,25,,1695.5243876851164,1696.041115582455,,,,,,,1705.9734010268003,None,0.9166666666666667,5.999264401383698,1705.9734010268003,None,1705.9734010268003,None,1698.4742655879818,1698.9738976280205,1700.8571173762903,1701.3905285787769,1704.1737197116017,1704.6734232902527,021,001,2021_Feb_18_1414,deception_task,2020.2.10,59.96852660209854,
4,Direct,TRUTH,Who is your favourite teacher in secondary school?,,,bit/B37.mp4,,,,,,,,,,,,,0,26,26,26,,1713.1724246339872,1713.6724390699528,,,,,,,1723.5380737381056,None,0.9305555555555556,1.9813161734491587,1723.5380737381056,None,1723.5380737381056,None,1714.272482121829,1714.7724378509447,1716.721969929058,1717.255247678142,1721.1883344859816,1721.7051544534042,021,001,2021_Feb_18_1414,deception_task,2020.2.10,59.96852660209854,
16,Indirect,LIE,Do you have 3 siblings?,,,bit/B11.mp4,,,,,,,,,,,,,0,27,27,27,,1726.6043305695057,1727.1044431710616,,,,,,,1735.3869968703948,None,0.5546296296296296,3.5330852679908276,1735.3869968703948,None,1735.3869968703948,None,1727.7545739943162,1728.2544565806165,1729.7374040321447,1730.27047775127,1733.2541421949863,1733.7534688315354,021,001,2021_Feb_18_1414,deception_task,2020.2.10,59.96852660209854,
12,Indirect,LIE,Was your favourite subject Chemistry back in secondary school?,,,bit/B33.mp4,,,,,,,,,,,,,0,28,28,28,,1739.9199441932142,1740.4199226996861,,,,,,,1752.3853065646254,None,0.4037037037037037,4.250629413407296,1752.3853065646254,None,1752.3853065646254,None,1741.5197453601286,1742.0194983426481,1743.5193389039487,1744.0529849338345,1749.9855812354945,1750.4853322929703,021,001,2021_Feb_18_1414,deception_task,2020.2.10,59.96852660209854,
3,Indirect,LIE,Is Sara Lim your closest friend back in secondary school?,,,bit/B13.mp4,,,,,,,,,,,,,0,29,29,29,,1757.9347925116308,1758.4345961809158,,,,,,,1769.0669959592633,None,0.600925925925926,3.13333331188187,1769.0669959592633,None,1769.0669959592633,None,1759.5845845676959,1760.0845415806398,1761.9842598522082,1762.5177801274695,1767.117036251817,1767.6166990888305,021,001,2021_Feb_18_1414,deception_task,2020.2.10,59.96852660209854,
19,Direct,TRUTH,Which MRT station is closest to your house?,,,bit/B28.mp4,,,,,,,,,,,,,0,30,30,30,,1773.1332794171758,1773.6665125750005,,,,,,,1785.1319936430082,None,0.9712962962962963,6.76603656867519,1785.1319936430082,None,1785.1319936430082,None,1776.1495504924096,1776.6494674044661,1778.2823945814744,1778.8158644908108,1782.8155254027806,1783.3153823255561,021,001,2021_Feb_18_1414,deception_task,2020.2.10,59.96852660209854,
9,Indirect,TRUTH,Is your favourite drink Milo?,,,bit/B26.mp4,,,,,,,,,,,,,0,31,31,31,,1793.214745790232,1793.7143890582956,,,,,,,1802.4969860655256,None,0.6064814814814815,1.682086547371,1802.4969860655256,None,1802.4969860655256,None,1794.631099246908,1795.131151217036,1797.0473991301842,1797.580258553382,1800.7803748119622,1801.2802413585596,021,001,2021_Feb_18_1414,deception_task,2020.2.10,59.96852660209854,
6,Direct,TRUTH,What CCA (Co-curricular Activity) did you join in secondary school?,,,bit/B36.mp4,,,,,,,,,,,,,0,32,32,32,,1805.0133190555498,1805.5133835365996,,,,,,,1815.862447179854,None,0.9703703703703703,0.8154352577403188,1815.862447179854,None,1815.862447179854,None,1806.4299105475657,1806.9293924523517,1808.9295169236138,1809.4631745018996,1813.5790379019454,1814.07896475913,021,001,2021_Feb_18_1414,deception_task,2020.2.10,59.96852660209854,
6,Indirect,LIE,Were you in the Choir CCA during secondary school?,,,bit/B4.mp4,,,,,,,,,,,,,0,33,33,33,,1819.0618518996052,1819.5619041905738,,,,,,,1830.6607336485758,None,0.5703703703703704,1.748500572051853,1830.6607336485758,None,1830.6607336485758,None,1820.8782396186143,1821.3782559796236,1822.7448074994609,1823.278133369051,1828.2938690255396,1828.7942013763823,021,001,2021_Feb_18_1414,deception_task,2020.2.10,59.96852660209854,
22,Direct,LIE,"Which year in NTU are you currently in? (Eg. 1, 2, 3, 4)",,,bit/B10.mp4,,,,,,,,,,,,,0,34,34,34,,1833.7939951005392,1834.3103723614477,,,,,,,1844.6759329242632,None,0.625,2.367524191737175,1844.6759329242632,None,1844.6759329242632,None,1836.6601616586559,1837.1598777486943,1838.8597072106786,1839.3932178616524,1843.0929594235495,1843.5927085564472,021,001,2021_Feb_18_1414,deception_task,2020.2.10,59.96852660209854,
1,Direct,LIE,Which primary school are you from?,,,bit/B17.mp4,,,,,,,,,,,,,0,35,35,35,,1848.15886882646,1848.692459999118,,,,,,,1859.8246371410787,None,0.5407407407407407,1.0994040141813457,1859.8246371410787,None,1859.8246371410787,None,1851.7919637826271,1852.291916624643,1853.9749729563482,1854.4916966832243,1857.8408568878658,1858.3409460703842,021,001,2021_Feb_18_1414,deception_task,2020.2.10,59.96852660209854,
14,Direct,LIE,"What is your favourite flavour?(E.g. chocolate, vanilla, milktea; it can be a complicated flavour)",,,bit/B12.mp4,,,,,,,,,,,,,0,36,36,36,,1863.7908377679996,1864.3074190584011,,,,,,,1872.7896674824879,None,0.40185185185185185,2.467179073020816,1872.7896674824879,None,1872.7896674824879,None,1864.857209767215,1865.357067331206,1866.7905689356849,1867.3239920083433,1871.223202450201,1871.7233522650786,021,001,2021_Feb_18_1414,deception_task,2020.2.10,59.96852660209854,
9,Direct,LIE,What is your favourite drink?,,,bit/B38.mp4,,,,,,,,,,,,,0,37,37,37,,1876.2394552398473,1876.772906221915,,,,,,,1887.3218618831597,None,0.6685185185185185,1.699400549288839,1887.3218618831597,None,1887.3218618831597,None,1877.8727535842918,1878.3726990479045,1880.1722947093658,1880.7056844183244,1884.8885081680492,1885.3883532211185,021,001,2021_Feb_18_1414,deception_task,2020.2.10,59.96852660209854,
16,Direct,TRUTH,"How many siblings do you have? (Eg. 0, 1, 2, 3)",,,bit/B32.mp4,,,,,,,,,,,,,0,38,38,38,,1890.8048911392689,1891.3218371812254,,,,,,,1901.486984422896,None,0.7037037037037037,2.0027441401034594,1901.486984422896,None,1901.486984422896,None,1892.6545306215994,1893.1545973485336,1894.9874348291196,1895.5042326608673,1899.6373077272438,1900.1369468253106,021,001,2021_Feb_18_1414,deception_task,2020.2.10,59.96852660209854,
27,Direct,LIE,How frequently do you drink alcohol?,,,bit/B1.mp4,,,,,,,,,,,,,0,39,39,39,,1904.7201266014017,1905.2536423853599,,,,,,,1914.5356770269573,None,0.38981481481481484,2.4497149353846908,1914.5356770269573,None,1914.5356770269573,None,1905.886455356609,1906.3863135622814,1908.5028038090095,1909.035862450488,1912.5691061941907,1913.0688970317133,021,001,2021_Feb_18_1414,deception_task,2020.2.10,59.96852660209854,
