item,style,condition,question,respond,video,bitalino,trials_3.thisRepN,trials_3.thisTrialN,trials_3.thisN,trials_3.thisIndex,Trialsloop.thisRepN,Trialsloop.thisTrialN,Trialsloop.thisN,Trialsloop.thisIndex,trials_2.thisRepN,trials_2.thisTrialN,trials_2.thisN,trials_2.thisIndex,trials.thisRepN,trials.thisTrialN,trials.thisN,trials.thisIndex,IDRESPONSE.text,sensor2.started,sensor2.stopped,sensor3.started,sensor3.stopped,sensor.started,sensor.stopped,sensor4.started,sensor4.stopped,textsubjresp.started,textsubjresp.stopped,SubjectiveResponse.response,SubjectiveResponse.rt,SubjectiveResponse.started,SubjectiveResponse.stopped,textsubjcon.started,textsubjcon.stopped,sensor5.started,sensor5.stopped,sensor1.started,sensor1.stopped,sensor6.started,sensor6.stopped,participant,session,date,expName,psychopyVersion,frameRate,
1,directx,TRUTH ,What is your favourite song?,"My favourite song is "Perfect" by Ed Sheeran",,,0,0,0,0,,,,,,,,,,,,,ID 028,,,,,,,,,,,,,,,,,,,,,,,028,001,2021_Feb_23_1218,deception_task,2020.2.10,60.03990868440487,
2,indirectx,LIE,What is your favourite tv-show/tv-drama?,"My favourite drama is F.R.I.E.N.D.S",,,0,1,1,1,,,,,,,,,,,,,,,,,,,,,,,,,,,,,,,,,,,,028,001,2021_Feb_23_1218,deception_task,2020.2.10,60.03990868440487,
3,directx,TRUTH ,Is George Washington your role model in life?,""No, my role model is Lee Kuan Yew"",,,0,2,2,2,,,,,,,,,,,,,,,,,,,,,,,,,,,,,,,,,,,,028,001,2021_Feb_23_1218,deception_task,2020.2.10,60.03990868440487,
4,indirectx,LIE,Is MacDonalds your favourite restaurant?,""Yes, MacDonalds is my favourite restaurant"",,,0,3,3,3,,,,,,,,,,,,,,,,,,,,,,,,,,,,,,,,,,,,028,001,2021_Feb_23_1218,deception_task,2020.2.10,60.03990868440487,
5,directx,TRUTH ,Who is your favourite celebrity?,"My favourite celebrity is Chris Hemsworth",,,0,4,4,4,,,,,,,,,,,,,,,,,,,,,,,,,,,,,,,,,,,,028,001,2021_Feb_23_1218,deception_task,2020.2.10,60.03990868440487,
1,directx,TRUTH ,What is your favourite song?,"My favourite song is "Perfect" by Ed Sheeran",,,,,,,0,0,0,0,,,,,,,,,,,,,,,,,,,,,,,,,,,,,,,,028,001,2021_Feb_23_1218,deception_task,2020.2.10,60.03990868440487,
2,indirectx,LIE,What is your favourite tv-show/tv-drama?,"My favourite drama is F.R.I.E.N.D.S",,,,,,,0,1,1,1,,,,,,,,,,,,,,,,,,,,,,,,,,,,,,,,028,001,2021_Feb_23_1218,deception_task,2020.2.10,60.03990868440487,
3,directx,TRUTH ,Is George Washington your role model in life?,""No, my role model is Lee Kuan Yew"",,,,,,,0,2,2,2,,,,,,,,,,,,,,,,,,,,,,,,,,,,,,,,028,001,2021_Feb_23_1218,deception_task,2020.2.10,60.03990868440487,
4,indirectx,LIE,Is MacDonalds your favourite restaurant?,""Yes, MacDonalds is my favourite restaurant"",,,,,,,0,3,3,3,,,,,,,,,,,,,,,,,,,,,,,,,,,,,,,,028,001,2021_Feb_23_1218,deception_task,2020.2.10,60.03990868440487,
5,directx,TRUTH ,Who is your favourite celebrity?,"My favourite celebrity is Chris Hemsworth",,,,,,,0,4,4,4,,,,,,,,,,,,,,,,,,,,,,,,,,,,,,,,028,001,2021_Feb_23_1218,deception_task,2020.2.10,60.03990868440487,
26,Indirect,LIE,Do you smoke socially?,,video/V13.mp4,,,,,,,,,,0,0,0,0,,,,,,422.107963972725,422.6246867370792,432.8070308882743,433.3068531639874,437.8230023342185,438.3559374669567,443.97229618486017,444.47244086675346,446.3220809912309,None,0.0,7.2492477195337415,446.3220809912309,None,446.3220809912309,None,,,,,,,028,001,2021_Feb_23_1218,deception_task,2020.2.10,60.03990868440487,
29,Indirect,TRUTH,Do you use a Samsung phone?,,video/V12.mp4,,,,,,,,,,0,1,1,1,,,,,,456.6379037774168,457.1542746219784,463.37045952957124,463.87034917389974,466.72012916766107,467.253338906914,471.3524756929837,471.85292802378535,473.719143985305,None,0.9972222222222222,2.7687146235257387,473.719143985305,None,473.719143985305,None,,,,,,,028,001,2021_Feb_23_1218,deception_task,2020.2.10,60.03990868440487,
30,Direct,LIE,What brand of laptop do you mainly use?,,video/V31.mp4,,,,,,,,,,0,2,2,2,,,,,,478.3855487704277,478.9021406476386,489.1341141439043,489.634135637898,492.4838078422472,493.0170968193561,497.11715944018215,497.6170683321543,499.40047600632533,None,0,2.0012934738770127,499.40047600632533,None,499.40047600632533,None,,,,,,,028,001,2021_Feb_23_1218,deception_task,2020.2.10,60.03990868440487,
5,Direct,LIE,What is your favourite country you visited? ,,video/V1.mp4,,,,,,,,,,0,3,3,3,,,,,,503.63302822969854,504.1496980614029,510.4486951059662,510.94899056479335,513.981842609588,514.5154681080021,518.7483696844429,519.2482891632244,520.4814804242924,None,0,2.4012754443101585,520.4814804242924,None,520.4814804242924,None,,,,,,,028,001,2021_Feb_23_1218,deception_task,2020.2.10,60.03990868440487,
22,Direct,TRUTH,"Which year in NTU are you currently in? (Eg. 1, 2, 3, 4)",,video/V30.mp4,,,,,,,,,,0,4,4,4,,,,,,526.0307443761267,526.5640965513885,534.996622597333,535.4964621961117,538.4461296531372,538.9798193117604,542.5459959427826,543.0459664287046,544.6956824548542,None,1.0,2.9666128577664495,544.6956824548542,None,544.6956824548542,None,,,,,,,028,001,2021_Feb_23_1218,deception_task,2020.2.10,60.03990868440487,
20,Direct,LIE,Which floor of the building is your house on?,,video/V15.mp4,,,,,,,,,,0,5,5,5,,,,,,548.6786975953728,549.1947271069512,558.9611001969315,559.4608435551636,562.5605350080878,563.0936924563721,566.9601198262535,567.4602285781875,568.5768635068089,None,0.0,3.2836306313984096,568.5768635068089,None,568.5768635068089,None,,,,,,,028,001,2021_Feb_23_1218,deception_task,2020.2.10,60.03990868440487,
6,Direct,LIE,What CCA (Co-curricular Activity) did you join in secondary school?,,video/V14.mp4,,,,,,,,,,0,6,6,6,,,,,,574.0426997025497,574.5760130607523,583.0751109654084,583.5749656422995,586.4080055486411,586.9414392076433,591.8408479052596,592.340885439422,593.8908452107571,None,1.0,2.166458359453827,593.8908452107571,None,593.8908452107571,None,,,,,,,028,001,2021_Feb_23_1218,deception_task,2020.2.10,60.03990868440487,
4,Indirect,LIE,Is Ms Tan your favourite teacher in secondary school?,,video/V38.mp4,,,,,,,,,,0,7,7,7,,,,,,597.0403687558137,597.5571351489052,605.0395924150944,605.5397672518156,608.4392545460723,608.9726763353683,613.9053563661873,614.4052594839595,616.371814597398,None,1,2.1167629286646843,616.371814597398,None,616.371814597398,None,,,,,,,028,001,2021_Feb_23_1218,deception_task,2020.2.10,60.03990868440487,
22,Indirect,LIE,Are you in your 2nd year in NTU?,,video/V10.mp4,,,,,,,,,,0,8,8,8,,,,,,619.4549465738237,619.9543530903757,640.6862835995853,641.1858133035712,644.3023548792116,644.835838903673,648.8686088230461,649.3851702241227,651.2346486644819,None,1,3.5689506055787206,651.2346486644819,None,651.2346486644819,None,,,,,,,028,001,2021_Feb_23_1218,deception_task,2020.2.10,60.03990868440487,
27,Direct,LIE,How frequently do you drink alcohol?,,video/V7.mp4,,,,,,,,,,0,9,9,9,,,,,,655.6678573768586,656.1845134142786,667.6333965100348,668.1500612092204,670.683055690024,671.2165134092793,674.8159273681231,675.3158567915671,676.6825664672069,None,0.005555555555555536,2.950403696857393,676.6825664672069,None,676.6825664672069,None,,,,,,,028,001,2021_Feb_23_1218,deception_task,2020.2.10,60.03990868440487,
21,Direct,TRUTH,"Which school in NTU are you from? (Eg. NBS, SSS, SOH)",,video/V17.mp4,,,,,,,,,,0,10,10,10,,,,,,680.8488009064458,681.3652856359258,690.2976830401458,690.7976721329615,693.4471276677214,693.9640371389687,698.3635151297785,698.8633149494417,700.8302232655697,None,1,2.183461183682084,700.8302232655697,None,700.8302232655697,None,,,,,,,028,001,2021_Feb_23_1218,deception_task,2020.2.10,60.03990868440487,
2,Indirect,LIE,Are you from Temasek Secondary School?,,video/V36.mp4,,,,,,,,,,0,11,11,11,,,,,,704.0297877448611,704.5464479527436,707.8795747966506,708.3794124708511,711.6785346283577,712.1957623348571,716.2619386450388,716.7618488203734,718.028726532124,None,1,2.949927306268364,718.028726532124,None,718.028726532124,None,,,,,,,028,001,2021_Feb_23_1218,deception_task,2020.2.10,60.03990868440487,
3,Indirect,LIE,Is Ethan your closest friend back in secondary school?,,video/V29.mp4,,,,,,,,,,0,12,12,12,,,,,,721.7111265026033,722.2444642418995,726.594019995071,727.0940174288116,729.7935023489408,730.3270944841206,734.3266235468909,734.8267903639935,735.8596966243349,None,0,2.351746831089258,735.8596966243349,None,735.8596966243349,None,,,,,,,028,001,2021_Feb_23_1218,deception_task,2020.2.10,60.03990868440487,
16,Direct,TRUTH,"How many siblings do you have? (Eg. 0, 1, 2, 3)",,video/V28.mp4,,,,,,,,,,0,13,13,13,,,,,,739.3927411502227,739.8923552255146,742.9591619116254,743.4590736911632,746.6087797721848,747.1421322682872,750.0087293423712,750.5080787558109,752.3249524892308,None,0.003703703703703709,2.933922175783664,752.3249524892308,None,752.3249524892308,None,,,,,,,028,001,2021_Feb_23_1218,deception_task,2020.2.10,60.03990868440487,
27,Direct,TRUTH,How frequently do you drink alcohol?,,video/V37.mp4,,,,,,,,,,0,14,14,14,,,,,,756.1744001326151,756.7080756761134,762.6073881331831,763.107247622218,765.8733470682055,766.4070168370381,769.3732646219432,769.8732405616902,771.7397086736746,None,0.48518518518518516,4.333812397904694,771.7397086736746,None,771.7397086736746,None,,,,,,,028,001,2021_Feb_23_1218,deception_task,2020.2.10,60.03990868440487,
30,Indirect,TRUTH,Do you use a Asus laptop?,,video/V19.mp4,,,,,,,,,,0,15,15,15,,,,,,776.9057817496359,777.439328330569,782.1387500530109,782.6552193840034,785.1883604712784,785.7215435835533,789.1545405667275,789.6544584417716,791.1378389755264,None,0.0018518518518518268,2.7334649050608277,791.1378389755264,None,791.1378389755264,None,,,,,,,028,001,2021_Feb_23_1218,deception_task,2020.2.10,60.03990868440487,
19,Direct,LIE,Which MRT station is closest to your house?,,video/V21.mp4,,,,,,,,,,0,16,16,16,,,,,,794.9539142330177,795.487287580967,800.6533340308815,801.1533558452502,803.8365446678363,804.369949133601,808.06950078113,808.569326906465,809.7857998940162,None,0.0009259259259259411,2.768329981714487,809.7857998940162,None,809.7857998940162,None,,,,,,,028,001,2021_Feb_23_1218,deception_task,2020.2.10,60.03990868440487,
15,Direct,TRUTH,Which polytechnic or junior college are you from?,,video/V9.mp4,,,,,,,,,,0,17,17,17,,,,,,813.552076423075,814.085427635815,817.7187099400908,818.2182951429859,821.3015410043299,821.8347857110202,824.5676038791426,825.0677299541421,826.217735985294,None,1.0,2.265944177750498,826.217735985294,None,826.217735985294,None,,,,,,,028,001,2021_Feb_23_1218,deception_task,2020.2.10,60.03990868440487,
21,Indirect,LIE,Are you from School of Social Sciences in NTU?,,video/V2.mp4,,,,,,,,,,0,18,18,18,,,,,,829.1504060714506,829.683780061081,837.100046901498,837.5997026809491,840.6828539054841,841.2161967777647,845.2821389022283,845.7821793234907,847.5320577393286,None,0.9972222222222222,1.5999827408231795,847.5320577393286,None,847.5320577393286,None,,,,,,,028,001,2021_Feb_23_1218,deception_task,2020.2.10,60.03990868440487,
15,Indirect,LIE,Are you from Nanyang Polytechnic?,,video/V39.mp4,,,,,,,,,,0,19,19,19,,,,,,849.9816876621917,850.5151380025782,852.9315825677477,853.4314635498449,856.397695615422,856.9309948584996,859.9971329933032,860.4970842311159,862.3473537690006,None,0.9972222222222222,2.033823754172772,862.3473537690006,None,862.3473537690006,None,,,,,,,028,001,2021_Feb_23_1218,deception_task,2020.2.10,60.03990868440487,
23,Indirect,TRUTH,Are you studying Business course in NTU?,,video/V4.mp4,,,,,,,,,,0,20,20,20,,,,,,865.9302027984522,866.4633657000959,869.99659564998,870.4961385070346,873.1458939919248,873.6796401115134,877.0124249807559,877.5124099031091,878.9456266355701,None,0.0,2.2990393908694386,878.9456266355701,None,878.9456266355701,None,,,,,,,028,001,2021_Feb_23_1218,deception_task,2020.2.10,60.03990868440487,
4,Direct,TRUTH,Who is your favourite teacher in secondary school?,,video/V3.mp4,,,,,,,,,,0,21,21,21,,,,,,882.8786964407191,883.3786008418538,892.1941846306436,892.6941884802654,895.4605429638177,895.9772836929187,899.5434426800348,900.0432816371322,901.9933138457127,None,0.999074074074074,2.566578916274011,901.9933138457127,None,901.9933138457127,None,,,,,,,028,001,2021_Feb_23_1218,deception_task,2020.2.10,60.03990868440487,
14,Indirect,TRUTH,Is your favourite flavour Belgian Chocolate?,,video/V32.mp4,,,,,,,,,,0,22,22,22,,,,,,905.325865491759,905.8596616568975,911.5091033973731,912.0090145352297,914.6254605115391,915.1587318442762,918.7248969264328,919.2246431722306,920.5747997877188,None,1,1.199354995507747,920.5747997877188,None,920.5747997877188,None,,,,,,,028,001,2021_Feb_23_1218,deception_task,2020.2.10,60.03990868440487,
18,Indirect,LIE,Was the last country you visited Australia?,,video/V25.mp4,,,,,,,,,,0,23,23,23,,,,,,922.6243097949773,923.1576170576736,927.0909229731187,927.5907138101757,930.3734811632894,930.9070922257379,934.7066708845086,935.2066715257242,936.4067005263641,None,1,0.6656804145313799,936.4067005263641,None,936.4067005263641,None,,,,,,,028,001,2021_Feb_23_1218,deception_task,2020.2.10,60.03990868440487,
29,Direct,LIE,What brand of handphone do you use?,,video/V8.mp4,,,,,,,,,,0,24,24,24,,,,,,941.5059120594524,942.0393774774857,951.3046948085539,951.8051805025898,954.3214470865205,954.8546212166548,958.4542866842821,958.9541702331044,960.6875626365654,None,0.0009259259259259411,2.1504885172471404,960.6875626365654,None,960.6875626365654,None,,,,,,,028,001,2021_Feb_23_1218,deception_task,2020.2.10,60.03990868440487,
19,Indirect,TRUTH,Is the Buangkok station the closest MRT to your house?,,video/V23.mp4,,,,,,,,,,0,25,25,25,,,,,,964.103530168999,964.6202830886468,968.220148736611,968.7201095991768,971.4196169753559,971.9529980225489,975.5526407137513,976.0525576258078,978.0693795178086,None,0,2.083057229872793,978.0693795178086,None,978.0693795178086,None,,,,,,,028,001,2021_Feb_23_1218,deception_task,2020.2.10,60.03990868440487,
16,Direct,LIE,"How many siblings do you have? (Eg. 0, 1, 2, 3)",,video/V11.mp4,,,,,,,,,,0,26,26,26,,,,,,981.1187923219986,981.618345445022,984.8517991215922,985.3516300590709,988.2682600473054,988.8011489845812,991.0677501647733,991.5676821549423,993.4339433489367,None,0,2.4833901580423117,993.4339433489367,None,993.4339433489367,None,,,,,,,028,001,2021_Feb_23_1218,deception_task,2020.2.10,60.03990868440487,
5,Indirect,TRUTH,Is your favourite country UAE?,,video/V27.mp4,,,,,,,,,,0,27,27,27,,,,,,996.8504710015841,997.3503628913313,1006.8829919788986,1007.3826407007873,1009.948911968153,1010.4825567146763,1013.31554978434,1013.8153957989998,1014.9488369007595,None,0.49166666666666664,3.099632104393095,1014.9488369007595,None,1014.9488369007595,None,,,,,,,028,001,2021_Feb_23_1218,deception_task,2020.2.10,60.03990868440487,
1,Indirect,LIE,Are you from North Vista Primary School?,,video/V35.mp4,,,,,,,,,,0,28,28,28,,,,,,1019.1647702995688,1019.6982658733614,1027.9139102296904,1028.4139224197716,1030.9803139884025,1031.5134942135774,1034.9802161436528,1035.4799732966349,1036.9799412162974,None,0.5101851851851852,1.8644355102442205,1036.9799412162974,None,1036.9799412162974,None,,,,,,,028,001,2021_Feb_23_1218,deception_task,2020.2.10,60.03990868440487,
1,Direct,TRUTH,Which primary school are you from?,,video/V20.mp4,,,,,,,,,,0,29,29,29,,,,,,1039.8791134832427,1040.3790826862678,1043.2461529430002,1043.7623101333156,1046.978893156629,1047.5119768204167,1051.1949224751443,1051.694797362201,1053.0948851979338,None,0.5101851851851852,1.2984465486370027,1053.0948851979338,None,1053.0948851979338,None,,,,,,,028,001,2021_Feb_23_1218,deception_task,2020.2.10,60.03990868440487,
18,Direct,TRUTH,What was the last country you visited?,,video/V5.mp4,,,,,,,,,,0,30,30,30,,,,,,1055.377970145084,1055.9113325858489,1060.960891354829,1061.4606667933986,1063.993543219287,1064.5272075347602,1068.0599626973271,1068.5601214943454,1070.2930002938956,None,0.8361111111111111,1.3982024821452796,1070.2930002938956,None,1070.2930002938956,None,,,,,,,028,001,2021_Feb_23_1218,deception_task,2020.2.10,60.03990868440487,
20,Indirect,TRUTH,Is your house on the 9th floor of the building?,,video/V34.mp4,,,,,,,,,,0,31,31,31,,,,,,1072.49281884823,1073.0263330284506,1076.176171279978,1076.675733064767,1079.4923078110442,1080.0255197957158,1083.291757186409,1083.7918155724183,1084.8752898448147,None,0.04444444444444445,3.2326359525322914,1084.8752898448147,None,1084.8752898448147,None,,,,,,,028,001,2021_Feb_23_1218,deception_task,2020.2.10,60.03990868440487,
14,Indirect,LIE,Is your favourite flavour Strawberry?,,video/V22.mp4,,,,,,,,,,0,32,32,32,,,,,,1089.3410310833715,1089.857924834825,1092.2408930743113,1092.7409010943957,1095.3906604289077,1095.9237566040829,1098.7570794578642,1099.2564805205911,1101.1566296289675,None,0.18333333333333335,2.717691714409739,1101.1566296289675,None,1101.1566296289675,None,,,,,,,028,001,2021_Feb_23_1218,deception_task,2020.2.10,60.03990868440487,
23,Direct,LIE,What course are you studying?,,video/V18.mp4,,,,,,,,,,0,33,33,33,,,,,,1104.5730549460277,1105.1061578579247,1114.039163182024,1114.538574510254,1117.5047892527655,1118.038587342482,1120.6046792818233,1121.1047071912326,1123.0545132346451,None,0.25555555555555554,1.0492286635562778,1123.0545132346451,None,1123.0545132346451,None,,,,,,,028,001,2021_Feb_23_1218,deception_task,2020.2.10,60.03990868440487,
2,Direct,TRUTH,Which secondary school did you attend?,,video/V16.mp4,,,,,,,,,,0,34,34,34,,,,,,1127.653937458992,1128.1705145793967,1131.086669459939,1131.5866572693922,1134.8032669187523,1135.3368025929667,1138.219407363329,1138.7198263308965,1139.852958179079,None,0.6222222222222222,1.8316274154931307,1139.852958179079,None,1139.852958179079,None,,,,,,,028,001,2021_Feb_23_1218,deception_task,2020.2.10,60.03990868440487,
8,Direct,TRUTH,What is your favourite food?,,video/V40.mp4,,,,,,,,,,0,35,35,35,,,,,,1142.7526960195974,1143.2859124955721,1153.1684043440036,1153.668167912867,1156.8511972972192,1157.3843383844942,1160.0003432584926,1160.5003862455487,1161.8007040321827,None,0.6222222222222222,1.3821261338889599,1161.8007040321827,None,1161.8007040321827,None,,,,,,,028,001,2021_Feb_23_1218,deception_task,2020.2.10,60.03990868440487,
6,Direct,TRUTH,What CCA (Co-curricular Activity) did you join in secondary school?,,video/V33.mp4,,,,,,,,,,0,36,36,36,,,,,,1164.6003526258282,1165.1336823445745,1169.7500888621435,1170.2498187469319,1173.2328220177442,1173.7661520577967,1176.7991122128442,1177.299198829569,1178.8823413923383,None,0.7935185185185185,3.4506199173629284,1178.8823413923383,None,1178.8823413923383,None,,,,,,,028,001,2021_Feb_23_1218,deception_task,2020.2.10,60.03990868440487,
8,Indirect,LIE,Is your favourite food Creamy Pasta?,,video/V6.mp4,,,,,,,,,,0,37,37,37,,,,,,1183.1820143670775,1183.6988000082783,1194.81402469147,1195.3138273982331,1197.930168472696,1198.4636618006043,1200.9633358656429,1201.463375645224,1203.1800940465182,None,0.8009259259259259,2.349956435151398,1203.1800940465182,None,1203.1800940465182,None,,,,,,,028,001,2021_Feb_23_1218,deception_task,2020.2.10,60.03990868440487,
26,Indirect,TRUTH,Do you not smoke at all? ,,video/V24.mp4,,,,,,,,,,0,38,38,38,,,,,,1206.129694455769,1206.6460701120086,1211.029336697422,1211.5457187700085,1214.2121870741248,1214.7456095046364,1217.2450837101787,1217.744842467364,1219.194927287288,None,0.8009259259259259,1.3164752973243594,1219.194927287288,None,1219.194927287288,None,,,,,,,028,001,2021_Feb_23_1218,deception_task,2020.2.10,60.03990868440487,
3,Indirect,TRUTH,Is Zyzann your closest friend back in secondary school?,,video/V26.mp4,,,,,,,,,,0,39,39,39,,,,,,1223.394542453345,1223.9280713903718,1229.5105219832622,1230.0104498029687,1232.4603318762966,1232.9932962018065,1236.8931431150995,1237.3929519169033,1239.3763292431831,None,0.14444444444444443,4.167389968410134,1239.3763292431831,None,1239.3763292431831,None,,,,,,,028,001,2021_Feb_23_1218,deception_task,2020.2.10,60.03990868440487,
23,Direct,TRUTH,What course are you studying?,,,bit/B39.mp4,,,,,,,,,,,,,0,0,0,0,,1316.4353013038635,1316.9686900503002,,,,,,,1333.8002010146156,None,0.8009259259259259,2.2994814557023346,1333.8002010146156,None,1333.8002010146156,None,1324.5008340850472,1325.0008520502597,1327.1672805747949,1327.7007139129564,1331.567183949519,1332.0669680493884,028,001,2021_Feb_23_1218,deception_task,2020.2.10,60.03990868440487,
16,Indirect,TRUTH,Do you have 3 siblings?,,,bit/B37.mp4,,,,,,,,,,,,,0,1,1,1,,1336.883142434992,1337.4164529056288,,,,,,,1347.5488286237232,None,0.8074074074074074,0.9156861887313426,1347.5488286237232,None,1347.5488286237232,None,1340.0657958392985,1340.566195237916,1342.0827867938206,1342.6160979066044,1345.3488432522863,1345.8489828011952,028,001,2021_Feb_23_1218,deception_task,2020.2.10,60.03990868440487,
30,Direct,TRUTH,What brand of laptop do you mainly use?,,,bit/B19.mp4,,,,,,,,,,,,,0,2,2,2,,1352.3815859039314,1352.9149438533932,,,,,,,1364.2304615573958,None,0.8777777777777778,2.0343370367772877,1364.2304615573958,None,1364.2304615573958,None,1355.8145899446681,1356.3145591476932,1358.3144285813905,1358.8478375384584,1362.0472762631252,1362.5473615964875,028,001,2021_Feb_23_1218,deception_task,2020.2.10,60.03990868440487,
15,Direct,LIE,Which polytechnic or junior college are you from?,,,bit/B10.mp4,,,,,,,,,,,,,0,3,3,3,,1367.613159360364,1368.1467219814658,,,,,,,1380.2955474616028,None,0.8777777777777778,2.5830825734883547,1380.2955474616028,None,1380.2955474616028,None,1373.3962244177237,1373.8960328991525,1375.2456723819487,1375.779451223556,1378.112473806832,1378.6122489245608,028,001,2021_Feb_23_1218,deception_task,2020.2.10,60.03990868440487,
4,Direct,LIE,Who is your favourite teacher in secondary school?,,,bit/B23.mp4,,,,,,,,,,,,,0,4,4,4,,1383.911756685935,1384.4284476907924,,,,,,,1396.943685783539,None,0.6805555555555556,3.03265443071723,1396.943685783539,None,1396.943685783539,None,1388.8613054458983,1389.3611841830425,1391.3607671405189,1391.8945155059919,1394.894204969518,1395.39375456376,028,001,2021_Feb_23_1218,deception_task,2020.2.10,60.03990868440487,
2,Direct,LIE,Which secondary school did you attend?,,,bit/B21.mp4,,,,,,,,,,,,,0,5,5,5,,1400.5601699352264,1401.0934066218324,,,,,,,1414.8419383112341,None,0.7064814814814815,1.848765297792852,1414.8419383112341,None,1414.8419383112341,None,1406.84297065204,1407.3426328473724,1409.092646962963,1409.6257457043976,1412.3422767571174,1412.85910249874,028,001,2021_Feb_23_1218,deception_task,2020.2.10,60.03990868440487,
20,Indirect,LIE,Is your house on the 4th floor of the building?,,,bit/B33.mp4,,,,,,,,,,,,,0,6,6,6,,1417.375118536409,1417.891777140554,,,,,,,1427.824047186412,None,0.7064814814814815,1.7818334987387061,1427.824047186412,None,1427.824047186412,None,1420.058155620005,1420.5577600710094,1422.024520818144,1422.5579599305056,1425.7578724799678,1426.2577162496746,028,001,2021_Feb_23_1218,deception_task,2020.2.10,60.03990868440487,
8,Direct,LIE,What is your favourite food?,,,bit/B11.mp4,,,,,,,,,,,,,0,7,7,7,,1430.4072301704437,1430.9067630828358,,,,,,,1441.1062290756963,None,0.6305555555555555,3.3673272193409503,1441.1062290756963,None,1441.1062290756963,None,1434.373337443918,1434.8732559601776,1436.4398589371704,1436.9729711525142,1439.1064100083895,1439.6062486446463,028,001,2021_Feb_23_1218,deception_task,2020.2.10,60.03990868440487,
1,Direct,LIE,Which primary school are you from?,,,bit/B34.mp4,,,,,,,,,,,,,0,8,8,8,,1445.155816075392,1445.6891137142666,,,,,,,1455.4212973359972,None,0.6305555555555555,1.797826117835939,1455.4212973359972,None,1455.4212973359972,None,1448.272138863802,1448.771999314893,1450.905198531691,1451.4384820549749,1453.7049590852112,1454.2045908044092,028,001,2021_Feb_23_1218,deception_task,2020.2.10,60.03990868440487,
20,Direct,TRUTH,Which floor of the building is your house on?,,,bit/B30.mp4,,,,,,,,,,,,,0,9,9,9,,1457.854486159049,1458.3710924717598,,,,,,,1468.0032035284676,None,0.19907407407407407,0.7319263387471437,1468.0032035284676,None,1468.0032035284676,None,1460.2538310172968,1460.7540514082648,1462.9037841157988,1463.420503993053,1466.203372398857,1466.7033983836882,028,001,2021_Feb_23_1218,deception_task,2020.2.10,60.03990868440487,
3,Direct,TRUTH,Who is your closest friend back in secondary school?,,,bit/B18.mp4,,,,,,,,,,,,,0,10,10,10,,1470.5195182324387,1471.052943550516,,,,,,,1481.7854040246457,None,0.6157407407407407,3.1670438228175044,1481.7854040246457,None,1481.7854040246457,None,1473.7528378143907,1474.2527309870347,1476.1689391210675,1476.7026072861627,1479.935678566806,1480.435384712182,028,001,2021_Feb_23_1218,deception_task,2020.2.10,60.03990868440487,
27,Indirect,TRUTH,Do you not drink alcohol at all? ,,,bit/B7.mp4,,,,,,,,,,,,,0,11,11,11,,1485.851504304912,1486.3685453045182,,,,,,,1495.9006915851496,None,0.6157407407407407,2.0340589019469917,1495.9006915851496,None,1495.9006915851496,None,1488.3846848509274,1488.9012940512039,1490.883991597686,1491.417307522148,1493.8175284904428,1494.317493843846,028,001,2021_Feb_23_1218,deception_task,2020.2.10,60.03990868440487,
21,Indirect,TRUTH,Are you from School of Humanities in NTU?,,,bit/B40.mp4,,,,,,,,,,,,,0,12,12,12,,1498.8833166304976,1499.400462532416,,,,,,,1510.0992837133817,None,0.8166666666666667,1.098060816526413,1510.0992837133817,None,1510.0992837133817,None,1502.43316540448,1502.933140381705,1504.4165199534036,1504.949759206269,1508.3159251222387,1508.815970997326,028,001,2021_Feb_23_1218,deception_task,2020.2.10,60.03990868440487,
14,Direct,TRUTH,"What is your favourite flavour?(E.g. chocolate, vanilla, milktea; it can be a complicated flavour)",,,bit/B28.mp4,,,,,,,,,,,,,0,13,13,13,,1513.632081863936,1514.1488007782027,,,,,,,1525.9141286956146,None,0.25277777777777777,3.3674228182062507,1525.9141286956146,None,1525.9141286956146,None,1517.2318467800505,1517.731898429338,1519.8145459946245,1520.347833367996,1523.4312062668614,1523.9311097054742,028,001,2021_Feb_23_1218,deception_task,2020.2.10,60.03990868440487,
30,Indirect,LIE,Do you use a Lenovo laptop?,,,bit/B1.mp4,,,,,,,,,,,,,0,14,14,14,,1529.8972262823954,1530.430589044001,,,,,,,1539.8628953406587,None,0.2796296296296296,2.1679388601332903,1539.8628953406587,None,1539.8628953406587,None,1532.0634735538624,1532.5634302455,1534.380187528208,1534.9132622093894,1537.463009931147,1537.9631148329936,028,001,2021_Feb_23_1218,deception_task,2020.2.10,60.03990868440487,
18,Indirect,TRUTH,Was the last country you visited Malaysia?,,,bit/B3.mp4,,,,,,,,,,,,,0,15,15,15,,1542.6460867938586,1543.162771382369,,,,,,,1553.9784122742712,None,0.6972222222222222,2.433410176075995,1553.9784122742712,None,1553.9784122742712,None,1546.495506527368,1546.99543210119,1548.7284151613712,1549.2449736753479,1552.2613326502033,1552.7615248104557,028,001,2021_Feb_23_1218,deception_task,2020.2.10,60.03990868440487,
18,Direct,LIE,What was the last country you visited?,,,bit/B29.mp4,,,,,,,,,,,,,0,16,16,16,,1557.14429607708,1557.6611500494182,,,,,,,1568.1101370854303,None,0.6490740740740741,1.3821254926733673,1568.1101370854303,None,1568.1101370854303,None,1560.4108558739536,1560.9107910720631,1562.7270591314882,1563.243733775802,1566.127067729365,1566.6268611326814,028,001,2021_Feb_23_1218,deception_task,2020.2.10,60.03990868440487,
26,Direct,LIE,How often do you smoke?,,,bit/B14.mp4,,,,,,,,,,,,,0,17,17,17,,1570.1598886563443,1570.693309803959,,,,,,,1582.5918725468218,None,0.44537037037037036,2.435596120543778,1582.5918725468218,None,1582.5918725468218,None,1575.1761776963249,1575.692380761262,1577.4588558664545,1577.9759404952638,1580.2583456630819,1580.7588900639676,028,001,2021_Feb_23_1218,deception_task,2020.2.10,60.03990868440487,
19,Direct,TRUTH,Which MRT station is closest to your house?,,,bit/B2.mp4,,,,,,,,,,,,,0,18,18,18,,1585.7084291996434,1586.2248767158017,,,,,,,1596.7906603645533,None,0.4722222222222222,1.865332793444395,1596.7906603645533,None,1596.7906603645533,None,1588.841350601986,1589.3409909829497,1591.0075747757219,1591.5244476753287,1594.9074710928835,1595.4073902508244,028,001,2021_Feb_23_1218,deception_task,2020.2.10,60.03990868440487,
27,Indirect,LIE,Do you drink alcohol frequently?,,,bit/B12.mp4,,,,,,,,,,,,,0,19,19,19,,1599.306869204156,1599.8234562692232,,,,,,,1609.2889594724402,None,0.32037037037037036,1.5834880666807294,1609.2889594724402,None,1609.2889594724402,None,1601.9400536641479,1602.4400074682198,1603.9896724228747,1604.5065347361378,1607.2728481567465,1607.772757370025,028,001,2021_Feb_23_1218,deception_task,2020.2.10,60.03990868440487,
5,Indirect,LIE,Is your favourite country Korea?,,,bit/B9.mp4,,,,,,,,,,,,,0,20,20,20,,1611.6219069883227,1612.155656315852,,,,,,,1620.6048236424103,None,0.32037037037037036,1.6490086577832699,1620.6048236424103,None,1620.6048236424103,None,1613.7056927592494,1614.20528662391,1615.9550463431515,1616.4719089772552,1619.0049454830587,1619.504735999275,028,001,2021_Feb_23_1218,deception_task,2020.2.10,60.03990868440487,
21,Direct,LIE,"Which school in NTU are you from? (Eg. NBS, SSS, SOH)",,,bit/B27.mp4,,,,,,,,,,,,,0,21,21,21,,1622.8881309055723,1623.4211873011664,,,,,,,1633.986996293068,None,0.7759259259259259,2.4338124617934227,1633.986996293068,None,1633.986996293068,None,1626.8209607508034,1627.320827296935,1629.0039526009932,1629.5374828213826,1632.1703314012848,1632.6702842437662,028,001,2021_Feb_23_1218,deception_task,2020.2.10,60.03990868440487,
22,Direct,LIE,"Which year in NTU are you currently in? (Eg. 1, 2, 3, 4)",,,bit/B24.mp4,,,,,,,,,,,,,0,22,22,22,,1638.9197420882992,1639.4363766317256,,,,,,,1649.4852851354517,None,0.7759259259259259,0.8484367961063981,1649.4852851354517,None,1649.4852851354517,None,1642.4861766439863,1642.9858208745718,1644.452310543973,1644.9855446643196,1647.7521561100148,1648.25206083199,028,001,2021_Feb_23_1218,deception_task,2020.2.10,60.03990868440487,
23,Indirect,LIE,Are you studying Public Policy and Global Affairs course in NTU?,,,bit/B15.mp4,,,,,,,,,,,,,0,23,23,23,,1653.2348462780938,1653.7683643079363,,,,,,,1665.3835267554969,None,0.7759259259259259,1.448631586972624,1665.3835267554969,None,1665.3835267554969,None,1658.0679060746916,1658.5676503954455,1660.4840391403995,1661.0175690399483,1663.8171303751878,1664.317250996828,028,001,2021_Feb_23_1218,deception_task,2020.2.10,60.03990868440487,
1,Indirect,TRUTH,Are you from Punggol Primary School?,,,bit/B35.mp4,,,,,,,,,,,,,0,24,24,24,,1667.6500467732549,1668.1666954322718,,,,,,,1681.4319052943029,None,0.5148148148148148,0.9154202439822257,1681.4319052943029,None,1681.4319052943029,None,1673.1327985352837,1673.632482866291,1675.6823560209014,1676.2160941208713,1679.082446102053,1679.5821050899103,028,001,2021_Feb_23_1218,deception_task,2020.2.10,60.03990868440487,
29,Indirect,LIE,Do you use a Apple phone?,,,bit/B32.mp4,,,,,,,,,,,,,0,25,25,25,,1684.1984538631514,1684.731815662235,,,,,,,1694.83070029784,None,0.22129629629629627,2.4511415418237448,1694.83070029784,None,1694.83070029784,None,1687.7481845817529,1688.2475801911205,1689.6810474698432,1690.1979999281466,1692.7978248344734,1693.2976143886335,028,001,2021_Feb_23_1218,deception_task,2020.2.10,60.03990868440487,
2,Indirect,TRUTH,Are you from Compassvale Secondary School?,,,bit/B13.mp4,,,,,,,,,,,,,0,26,26,26,,1698.1135943681002,1698.630273824092,,,,,,,1708.2456428678706,None,0.8175925925925926,1.9651297903619707,1708.2456428678706,None,1708.2456428678706,None,1700.7803789828904,1701.280196125619,1702.7798666618764,1703.3133769924752,1706.0296247773804,1706.5296850879677,028,001,2021_Feb_23_1218,deception_task,2020.2.10,60.03990868440487,
6,Indirect,LIE,Were you in the Choir CCA during secondary school?,,,bit/B20.mp4,,,,,,,,,,,,,0,27,27,27,,1711.212427996099,1711.7122534797527,,,,,,,1723.0280772289261,None,0.1648148148148148,1.315551067236811,1723.0280772289261,None,1723.0280772289261,None,1715.0621650028042,1715.5619353083894,1717.3116132235155,1717.8452108120546,1720.64488186175,1721.1446479968727,028,001,2021_Feb_23_1218,deception_task,2020.2.10,60.03990868440487,
22,Indirect,TRUTH,Are you in your 3rd year in NTU?,,,bit/B38.mp4,,,,,,,,,,,,,0,28,28,28,,1725.2442364720628,1725.7778728781268,,,,,,,1734.7267973572016,None,0.8935185185185186,0.981794168241322,1734.7267973572016,None,1734.7267973572016,None,1728.0105787655339,1728.5106888003647,1730.110331170261,1730.6271107164212,1733.1434745034203,1733.6432762476616,028,001,2021_Feb_23_1218,deception_task,2020.2.10,60.03990868440487,
14,Direct,LIE,"What is your favourite flavour?(E.g. chocolate, vanilla, milktea; it can be a complicated flavour)",,,bit/B31.mp4,,,,,,,,,,,,,0,29,29,29,,1738.9930132543668,1739.5098482994363,,,,,,,1752.6747998520732,None,0.29907407407407405,0.9319226173684001,1752.6747998520732,None,1752.6747998520732,None,1744.5588023564778,1745.0591523516923,1746.9252034206875,1747.4419544152915,1750.258663898334,1750.758502855897,028,001,2021_Feb_23_1218,deception_task,2020.2.10,60.03990868440487,
16,Indirect,LIE,Do you have 2 siblings?,,,bit/B26.mp4,,,,,,,,,,,,,0,30,30,30,,1756.441051678732,1756.9410738139413,,,,,,,1766.5234037861228,None,0.662037037037037,1.6318855327554047,1766.5234037861228,None,1766.5234037861228,None,1759.0743734417483,1759.573993933387,1761.3739087921567,1761.9075541803613,1764.3735568723641,1764.8735199803486,028,001,2021_Feb_23_1218,deception_task,2020.2.10,60.03990868440487,
8,Indirect,TRUTH,Is your favourite food Sushi?,,,bit/B4.mp4,,,,,,,,,,,,,0,31,31,31,,1768.923132644035,1769.4566317466088,,,,,,,1779.4222029601224,None,0.12962962962962965,0.8996932492591441,1779.4222029601224,None,1779.4222029601224,None,1772.3728674692102,1772.872793363873,1774.3561482336372,1774.8895828551613,1777.8890647599474,1778.3891398273408,028,001,2021_Feb_23_1218,deception_task,2020.2.10,60.03990868440487,
6,Indirect,TRUTH,Were you in the Drama Club CCA during secondary school?,,,bit/B16.mp4,,,,,,,,,,,,,0,32,32,32,,1782.7554314979352,1783.2719136606902,,,,,,,1794.7039421428926,None,0.4666666666666667,0.7318092458881438,1794.7039421428926,None,1794.7039421428926,None,1786.2716416209005,1786.7714035855606,1788.5045027765445,1789.0212043677457,1792.6041987203062,1793.1041429005563,028,001,2021_Feb_23_1218,deception_task,2020.2.10,60.03990868440487,
4,Indirect,TRUTH,Is Mr Idroz your favourite teacher in secondary school?,,,bit/B25.mp4,,,,,,,,,,,,,0,33,33,33,,1797.420374067966,1797.9536174912937,,,,,,,1809.4695687270723,None,0.7240740740740741,1.915209798142314,1809.4695687270723,None,1809.4695687270723,None,1801.320141743403,1801.8200795077719,1803.6865290128626,1804.2199139096774,1807.7196620800532,1808.2193056694232,028,001,2021_Feb_23_1218,deception_task,2020.2.10,60.03990868440487,
5,Direct,TRUTH,What is your favourite country you visited? ,,,bit/B5.mp4,,,,,,,,,,,,,0,34,34,34,,1812.052227200009,1812.5856403270736,,,,,,,1825.1008373573422,None,0.5722222222222222,1.7009843490086496,1825.1008373573422,None,1825.1008373573422,None,1817.584905049298,1818.0849984027445,1819.8178120795637,1820.3509868513793,1823.43443866726,1823.9510972714052,028,001,2021_Feb_23_1218,deception_task,2020.2.10,60.03990868440487,
15,Indirect,TRUTH,Are you from Meridian Junior College?,,,bit/B17.mp4,,,,,,,,,,,,,0,35,35,35,,1827.4506510356441,1827.967509820126,,,,,,,1836.133204670623,None,0.6555555555555556,3.8334931996650994,1836.133204670623,None,1836.133204670623,None,1828.9339241008274,1829.433657514397,1830.86722295871,1831.4002979611978,1834.4501653416082,1834.9499828051776,028,001,2021_Feb_23_1218,deception_task,2020.2.10,60.03990868440487,
26,Direct,TRUTH,How often do you smoke?,,,bit/B36.mp4,,,,,,,,,,,,,0,36,36,36,,1841.765767736826,1842.2659948649816,,,,,,,1851.6816521817818,None,0.7398148148148148,1.6505805873312056,1851.6816521817818,None,1851.6816521817818,None,1844.332309119869,1844.8657286632806,1846.8655053852126,1847.3823211821727,1849.3317313552834,1849.8317666435614,028,001,2021_Feb_23_1218,deception_task,2020.2.10,60.03990868440487,
29,Direct,TRUTH,What brand of handphone do you use?,,,bit/B6.mp4,,,,,,,,,,,,,0,37,37,37,,1855.3312870445661,1855.8312912150286,,,,,,,1867.9632373796776,None,0.5944444444444444,2.051110808737576,1867.9632373796776,None,1867.9632373796776,None,1860.8975826934911,1861.397557029035,1862.8136583357118,1863.3304609796032,1865.8970212899148,1866.3969333902933,028,001,2021_Feb_23_1218,deception_task,2020.2.10,60.03990868440487,
3,Direct,LIE,Who is your closest friend back in secondary school?,,,bit/B8.mp4,,,,,,,,,,,,,0,38,38,38,,1870.629786525853,1871.1464464128949,,,,,,,1883.4951581363566,None,0.44351851851851853,2.0326136890798807,1883.4951581363566,None,1883.4951581363566,None,1875.2293365048245,1875.7295312313363,1877.76250036899,1878.2959061181173,1881.9452910767868,1882.4452445604838,028,001,2021_Feb_23_1218,deception_task,2020.2.10,60.03990868440487,
19,Indirect,LIE,Is the Tampines station the closest MRT to your house?,,,bit/B22.mp4,,,,,,,,,,,,,0,39,39,39,,1886.261693872977,1886.7781526171602,,,,,,,1898.0604301057756,None,0.6574074074074074,0.6481293397955596,1898.0604301057756,None,1898.0604301057756,None,1889.161056375131,1889.6778044831008,1891.610896423459,1892.1442492404021,1895.8437970378436,1896.3436975893565,028,001,2021_Feb_23_1218,deception_task,2020.2.10,60.03990868440487,
