item,style,condition,question,respond,video,bitalino,trials_3.thisRepN,trials_3.thisTrialN,trials_3.thisN,trials_3.thisIndex,Trialsloop.thisRepN,Trialsloop.thisTrialN,Trialsloop.thisN,Trialsloop.thisIndex,trials_2.thisRepN,trials_2.thisTrialN,trials_2.thisN,trials_2.thisIndex,trials.thisRepN,trials.thisTrialN,trials.thisN,trials.thisIndex,IDRESPONSE.text,sensor2.started,sensor2.stopped,sensor3.started,sensor3.stopped,sensor.started,sensor.stopped,sensor4.started,sensor4.stopped,textsubjresp.started,textsubjresp.stopped,SubjectiveResponse.response,SubjectiveResponse.rt,SubjectiveResponse.started,SubjectiveResponse.stopped,textsubjcon.started,textsubjcon.stopped,sensor5.started,sensor5.stopped,sensor1.started,sensor1.stopped,sensor6.started,sensor6.stopped,participant,session,date,expName,psychopyVersion,frameRate,
1,directx,TRUTH ,What is your favourite song?,"My favourite song is "Perfect" by Ed Sheeran",,,0,0,0,0,,,,,,,,,,,,,ID 022,,,,,,,,,,,,,,,,,,,,,,,022,001,2021_Feb_16_1603,deception_task,2020.2.10,60.05471449821671,
2,indirectx,LIE,What is your favourite tv-show/tv-drama?,"My favourite drama is F.R.I.E.N.D.S",,,0,1,1,1,,,,,,,,,,,,,,,,,,,,,,,,,,,,,,,,,,,,022,001,2021_Feb_16_1603,deception_task,2020.2.10,60.05471449821671,
3,directx,TRUTH ,Is George Washington your role model in life?,""No, my role model is Lee Kuan Yew"",,,0,2,2,2,,,,,,,,,,,,,,,,,,,,,,,,,,,,,,,,,,,,022,001,2021_Feb_16_1603,deception_task,2020.2.10,60.05471449821671,
4,indirectx,LIE,Is MacDonalds your favourite restaurant?,""Yes, MacDonalds is my favourite restaurant"",,,0,3,3,3,,,,,,,,,,,,,,,,,,,,,,,,,,,,,,,,,,,,022,001,2021_Feb_16_1603,deception_task,2020.2.10,60.05471449821671,
5,directx,TRUTH ,Who is your favourite celebrity?,"My favourite celebrity is Chris Hemsworth",,,0,4,4,4,,,,,,,,,,,,,,,,,,,,,,,,,,,,,,,,,,,,022,001,2021_Feb_16_1603,deception_task,2020.2.10,60.05471449821671,
1,directx,TRUTH ,What is your favourite song?,"My favourite song is "Perfect" by Ed Sheeran",,,,,,,0,0,0,0,,,,,,,,,,,,,,,,,,,,,,,,,,,,,,,,022,001,2021_Feb_16_1603,deception_task,2020.2.10,60.05471449821671,
2,indirectx,LIE,What is your favourite tv-show/tv-drama?,"My favourite drama is F.R.I.E.N.D.S",,,,,,,0,1,1,1,,,,,,,,,,,,,,,,,,,,,,,,,,,,,,,,022,001,2021_Feb_16_1603,deception_task,2020.2.10,60.05471449821671,
3,directx,TRUTH ,Is George Washington your role model in life?,""No, my role model is Lee Kuan Yew"",,,,,,,0,2,2,2,,,,,,,,,,,,,,,,,,,,,,,,,,,,,,,,022,001,2021_Feb_16_1603,deception_task,2020.2.10,60.05471449821671,
4,indirectx,LIE,Is MacDonalds your favourite restaurant?,""Yes, MacDonalds is my favourite restaurant"",,,,,,,0,3,3,3,,,,,,,,,,,,,,,,,,,,,,,,,,,,,,,,022,001,2021_Feb_16_1603,deception_task,2020.2.10,60.05471449821671,
5,directx,TRUTH ,Who is your favourite celebrity?,"My favourite celebrity is Chris Hemsworth",,,,,,,0,4,4,4,,,,,,,,,,,,,,,,,,,,,,,,,,,,,,,,022,001,2021_Feb_16_1603,deception_task,2020.2.10,60.05471449821671,
29,Indirect,LIE,Do you use a Samsung phone?,,video/V15.mp4,,,,,,,,,,0,0,0,0,,,,,,98.46707609528676,98.98384024295956,111.69913652911782,112.19887411314994,116.16529256477952,116.6985610104166,118.398177459836,118.89819382084534,120.11507005663589,None,0.014814814814814836,3.199974785093218,120.11507005663589,None,120.11507005663589,None,,,,,,,022,001,2021_Feb_16_1603,deception_task,2020.2.10,60.05471449821671,
6,Direct,TRUTH,What CCA (Co-curricular Activity) did you join in secondary school?,,video/V13.mp4,,,,,,,,,,0,1,1,1,,,,,,124.38096483098343,124.89754772558808,132.74686704808846,133.24690394010395,135.79652141593397,136.32985498476774,137.6632413570769,138.1630267407745,139.32959898468107,None,0.9555555555555555,4.09922436485067,139.32959898468107,None,139.32959898468107,None,,,,,,,022,001,2021_Feb_16_1603,deception_task,2020.2.10,60.05471449821671,
15,Direct,LIE,Which polytechnic or junior college are you from?,,video/V1.mp4,,,,,,,,,,0,2,2,2,,,,,,144.56192311784253,145.07892433786765,148.1120057562366,148.61209878884256,151.69489777320996,152.22820471506566,154.0948938592337,154.59470522776246,156.4612358957529,None,0.02777777777777779,3.2498803408816457,156.4612358957529,None,156.4612358957529,None,,,,,,,022,001,2021_Feb_16_1603,deception_task,2020.2.10,60.05471449821671,
1,Direct,LIE,Which primary school are you from?,,video/V6.mp4,,,,,,,,,,0,3,3,3,,,,,,160.3607084332034,160.89415075350553,164.72717846976593,165.22712457505986,168.01016428880394,168.54330184776336,170.14325250824913,170.64328587148339,172.5762276770547,None,0.037962962962962976,1.7981770746409893,172.5762276770547,None,172.5762276770547,None,,,,,,,022,001,2021_Feb_16_1603,deception_task,2020.2.10,60.05471449821671,
26,Direct,TRUTH,How often do you smoke?,,video/V33.mp4,,,,,,,,,,0,4,4,4,,,,,,174.94278817949817,175.4760765149258,177.9922750890255,178.5089856623672,181.69195890659466,182.22534925676882,183.8584342682734,184.35832872428,185.50809447467327,None,0.9787037037037036,5.382460410241038,185.50809447467327,None,185.50809447467327,None,,,,,,,022,001,2021_Feb_16_1603,deception_task,2020.2.10,60.05471449821671,
29,Indirect,TRUTH,Do you use a Apple phone?,,video/V3.mp4,,,,,,,,,,0,5,5,5,,,,,,191.50732583319768,192.00726905139163,193.47379817953333,193.97374877613038,196.69008831027895,197.22397141251713,199.22352517722175,199.7235777885653,201.50690590357408,None,0.9787037037037036,2.0509266685694456,201.50690590357408,None,201.50690590357408,None,,,,,,,022,001,2021_Feb_16_1603,deception_task,2020.2.10,60.05471449821671,
16,Direct,TRUTH,"How many siblings do you have? (Eg. 0, 1, 2, 3)",,video/V16.mp4,,,,,,,,,,0,6,6,6,,,,,,204.13929573679343,204.63924280460924,205.68932961346582,206.18910569371656,209.23875781614333,209.75552517175674,211.1220061155036,211.6219073086977,213.63881774200127,None,0.9731481481481481,5.88219350297004,213.63881774200127,None,213.63881774200127,None,,,,,,,022,001,2021_Feb_16_1603,deception_task,2020.2.10,60.05471449821671,
20,Direct,LIE,Which floor of the building is your house on?,,video/V35.mp4,,,,,,,,,,0,7,7,7,,,,,,220.12127885781229,220.6547827720642,221.50488549284637,222.0045701446943,225.1708809346892,225.70435982663184,227.27065932471305,227.7706198664382,229.1369882086292,None,0.040740740740740744,5.132332730572671,229.1369882086292,None,229.1369882086292,None,,,,,,,022,001,2021_Feb_16_1603,deception_task,2020.2.10,60.05471449821671,
27,Indirect,LIE,Do you drink alcohol frequently?,,video/V40.mp4,,,,,,,,,,0,8,8,8,,,,,,235.0699059534818,235.60344772273675,240.4865022576414,240.98606532532722,243.60251835919917,244.13611434400082,245.93572379974648,246.43551656138152,247.852119281888,None,0.006481481481481477,2.1845541559159756,247.852119281888,None,247.852119281888,None,,,,,,,022,001,2021_Feb_16_1603,deception_task,2020.2.10,60.05471449821671,
28,Direct,LIE,What religion do you practice?,,video/V12.mp4,,,,,,,,,,0,9,9,9,,,,,,250.7347927042283,251.2517435583286,252.3681972338818,252.8681539259851,255.63468132168055,256.16786058433354,257.73447607271373,258.234424744267,259.66760458471254,None,0.015740740740740722,3.6665302189067006,259.66760458471254,None,259.66760458471254,None,,,,,,,022,001,2021_Feb_16_1603,deception_task,2020.2.10,60.05471449821671,
23,Indirect,TRUTH,Are you studying Sociology course in NTU?,,video/V29.mp4,,,,,,,,,,0,10,10,10,,,,,,263.96679122326896,264.4665881553665,267.24983350373805,267.74998780945316,270.69988463958725,271.2331319125369,273.3329135105014,273.8326764376834,275.4326267777942,None,0.03888888888888886,2.383758374489844,275.4326267777942,None,275.4326267777942,None,,,,,,,022,001,2021_Feb_16_1603,deception_task,2020.2.10,60.05471449821671,
30,Indirect,TRUTH,Do you use a Lenovo laptop?,,video/V28.mp4,,,,,,,,,,0,11,11,11,,,,,,279.0988724450581,279.615605795756,282.3319180617109,282.84852245030925,286.01470941118896,286.5482091549784,288.1812685020268,288.68121300358325,289.7648095013574,None,0.9759259259259259,2.6663210559636354,289.7648095013574,None,289.7648095013574,None,,,,,,,022,001,2021_Feb_16_1603,deception_task,2020.2.10,60.05471449821671,
6,Direct,LIE,What CCA (Co-curricular Activity) did you join in secondary school?,,video/V27.mp4,,,,,,,,,,0,12,12,12,,,,,,293.01433407282457,293.5475620976649,299.7135751834139,300.21347990538925,302.6799981263466,303.2132909530774,304.5797555358149,305.09647028008476,306.46305869240314,None,0.007407407407407418,2.7160347723402083,306.46305869240314,None,306.46305869240314,None,,,,,,,022,001,2021_Feb_16_1603,deception_task,2020.2.10,60.05471449821671,
3,Direct,TRUTH,Who is your closest friend back in secondary school?,,video/V32.mp4,,,,,,,,,,0,13,13,13,,,,,,310.1458872547373,310.67891189083457,311.74573557963595,312.24557453673333,314.845329829026,315.3784006610513,317.1453300216235,317.6451077060774,319.0950895487331,None,0.9916666666666667,2.350172655656934,319.0950895487331,None,319.0950895487331,None,,,,,,,022,001,2021_Feb_16_1603,deception_task,2020.2.10,60.05471449821671,
25,Indirect,TRUTH,Is your dad 51 years old this year?,,video/V30.mp4,,,,,,,,,,0,14,14,14,,,,,,321.9947789479047,322.51129383267835,324.64402467850596,325.14449850283563,328.1774201616645,328.7105211489834,331.67699060821906,332.1769174654037,333.6266593481414,None,0.9722222222222222,2.2498857947066426,333.6266593481414,None,333.6266593481414,None,,,,,,,022,001,2021_Feb_16_1603,deception_task,2020.2.10,60.05471449821671,
22,Direct,LIE,"Which year in NTU are you currently in? (Eg. 1, 2, 3, 4)",,video/V8.mp4,,,,,,,,,,0,15,15,15,,,,,,337.6595729868859,338.1926717283204,340.7427460262552,341.2595060034655,343.9586518360302,344.4925557905808,345.79237312590703,346.2921049352735,348.02534239180386,None,0.0222222222222222,2.0502225081436336,348.02534239180386,None,348.02534239180386,None,,,,,,,022,001,2021_Feb_16_1603,deception_task,2020.2.10,60.05471449821671,
22,Indirect,TRUTH,Are you in your 1st year in NTU?,,video/V26.mp4,,,,,,,,,,0,16,16,16,,,,,,350.97503262525424,351.5081814122386,352.4416271969676,352.9413975030184,355.54108863463625,356.07446647435427,357.7077430039644,358.20770065812394,360.0070518683642,None,0.9768518518518519,1.717270822264254,360.0070518683642,None,360.0070518683642,None,,,,,,,022,001,2021_Feb_16_1603,deception_task,2020.2.10,60.05471449821671,
20,Direct,TRUTH,Which floor of the building is your house on?,,video/V25.mp4,,,,,,,,,,0,17,17,17,,,,,,362.37409164896235,362.8903601579368,364.39029952604324,364.88993958663195,367.6735692550428,368.2067520469427,370.0064060939476,370.506391657982,371.63981254864484,None,0.9768518518518519,1.3151821452192962,371.63981254864484,None,371.63981254864484,None,,,,,,,022,001,2021_Feb_16_1603,deception_task,2020.2.10,60.05471449821671,
2,Indirect,TRUTH,Are you from Jurong Secondary School?,,video/V11.mp4,,,,,,,,,,0,18,18,18,,,,,,375.23936701891944,375.77255109418184,377.5560139459558,378.0558253140189,380.72195132263005,381.25558355776593,383.021896337159,383.5217285580002,385.0051029967144,None,0.9768518518518519,1.3838055324740708,385.0051029967144,None,385.0051029967144,None,,,,,,,022,001,2021_Feb_16_1603,deception_task,2020.2.10,60.05471449821671,
21,Indirect,LIE,Are you from Nanyang Business School in NTU?,,video/V31.mp4,,,,,,,,,,0,19,19,19,,,,,,387.53765541221946,388.0548070888035,391.15460665151477,391.65447159390897,394.60411210358143,395.137259285897,396.6371470056474,397.1372233564034,398.787234520074,None,0.03518518518518521,2.2341132457368076,398.787234520074,None,398.787234520074,None,,,,,,,022,001,2021_Feb_16_1603,deception_task,2020.2.10,60.05471449821671,
16,Direct,LIE,"How many siblings do you have? (Eg. 0, 1, 2, 3)",,video/V10.mp4,,,,,,,,,,0,20,20,20,,,,,,401.7200306812301,402.25328725762665,406.5863332590088,407.0861969185062,410.20242474926636,410.73598608747125,411.9691670825705,412.4686557240784,413.8850986850448,None,0.9731481481481481,1.5174089595675468,413.8850986850448,None,413.8850986850448,None,,,,,,,022,001,2021_Feb_16_1603,deception_task,2020.2.10,60.05471449821671,
25,Direct,LIE,"How old is your dad? (Eg. 45, 52)",,video/V19.mp4,,,,,,,,,,0,21,21,21,,,,,,416.20183351123706,416.73542275931686,420.70136802783236,421.201210193336,424.46762338327244,425.0011619445868,426.8342961668968,427.3339310940355,428.4337142962031,None,0.018518518518518545,5.516904017422348,428.4337142962031,None,428.4337142962031,None,,,,,,,022,001,2021_Feb_16_1603,deception_task,2020.2.10,60.05471449821671,
27,Indirect,TRUTH,Do you drink alcohol rarely?,,video/V7.mp4,,,,,,,,,,0,22,22,22,,,,,,434.6496903616935,435.1832472085953,437.23319992236793,437.732690168079,440.81611984875053,441.3495692270808,442.9827065290883,443.48248036345467,445.16558096557856,None,0.04629629629629628,2.0326108019798994,445.16558096557856,None,445.16558096557856,None,,,,,,,022,001,2021_Feb_16_1603,deception_task,2020.2.10,60.05471449821671,
21,Indirect,TRUTH,Are you from School of Humanities in NTU?,,video/V14.mp4,,,,,,,,,,0,23,23,23,,,,,,448.1986027150415,448.7318265689537,450.96516989031807,451.4651884967461,453.9812972461805,454.51492691459134,456.8476825905964,457.3477352024056,458.4643842461519,None,0.9851851851851852,4.73342191753909,458.4643842461519,None,458.4643842461519,None,,,,,,,022,001,2021_Feb_16_1603,deception_task,2020.2.10,60.05471449821671,
28,Direct,TRUTH,What religion do you practice?,,video/V20.mp4,,,,,,,,,,0,24,24,24,,,,,,463.6970776221715,464.23040573718026,465.28002385469154,465.7800645963289,468.37982630496845,468.9134591817856,470.8797056833282,471.3796790568158,473.04628177685663,None,0.9685185185185186,3.7171184411272407,473.04628177685663,None,473.04628177685663,None,,,,,,,022,001,2021_Feb_16_1603,deception_task,2020.2.10,60.05471449821671,
2,Direct,LIE,Which secondary school did you attend?,,video/V5.mp4,,,,,,,,,,0,25,25,25,,,,,,477.6789673897438,478.2122002262622,485.79514068411663,486.31154168443754,489.51129287015647,490.04458184726536,492.6442793952301,493.1442161970772,494.34431288717315,None,0.05092592592592593,2.0998563449829817,494.34431288717315,None,494.34431288717315,None,,,,,,,022,001,2021_Feb_16_1603,deception_task,2020.2.10,60.05471449821671,
26,Direct,LIE,How often do you smoke?,,video/V34.mp4,,,,,,,,,,0,26,26,26,,,,,,497.07708518067375,497.59376431582496,498.49376521399245,498.9935316699557,501.9432889511809,502.47675533173606,504.1093302681111,504.6093482328579,506.24284547474235,None,0.030555555555555558,2.2655467041768134,506.24284547474235,None,506.24284547474235,None,,,,,,,022,001,2021_Feb_16_1603,deception_task,2020.2.10,60.05471449821671,
23,Indirect,LIE,Are you studying Business course in NTU?,,video/V21.mp4,,,,,,,,,,0,27,27,27,,,,,,509.1424889997579,509.64258074900135,514.0255554043688,514.5421084640548,517.0754513363354,517.6084044338204,519.9749463298358,520.4749383097515,521.9410799089819,None,0.030555555555555558,2.435445985291153,521.9410799089819,None,521.9410799089819,None,,,,,,,022,001,2021_Feb_16_1603,deception_task,2020.2.10,60.05471449821671,
24,Indirect,TRUTH,Is your mum 48 years old this year?,,video/V39.mp4,,,,,,,,,,0,28,28,28,,,,,,525.0075956275687,525.5243687578477,526.890612307936,527.3905827943236,530.1238940353505,530.6570100998506,532.8567664190196,533.3570256265812,535.3567696269602,None,0.9648148148148148,2.135883366689086,535.3567696269602,None,535.3567696269602,None,,,,,,,022,001,2021_Feb_16_1603,deception_task,2020.2.10,60.05471449821671,
18,Direct,TRUTH,What was the last country you visited?,,video/V22.mp4,,,,,,,,,,0,29,29,29,,,,,,538.1732205436565,538.706488668453,541.2894368255511,541.7894798130728,544.7224806458689,545.2558036278933,547.2553067058325,547.7554979035631,549.655138220638,None,0.9703703703703703,5.049191771540791,549.655138220638,None,549.655138220638,None,,,,,,,022,001,2021_Feb_16_1603,deception_task,2020.2.10,60.05471449821671,
18,Indirect,LIE,Was the last country you visited Australia?,,video/V2.mp4,,,,,,,,,,0,30,30,30,,,,,,555.3378779208288,555.8377393339761,558.554389083758,559.0542238708586,561.8872297722846,562.4204873107374,564.6534315543249,565.1538627119735,566.6536079952493,None,0.03888888888888886,3.949625752400607,566.6536079952493,None,566.6536079952493,None,,,,,,,022,001,2021_Feb_16_1603,deception_task,2020.2.10,60.05471449821671,
17,Indirect,LIE,Did you not celebrate your 21st birthday?,,video/V18.mp4,,,,,,,,,,0,31,31,31,,,,,,571.169839290902,571.7029957766645,574.0028410218656,574.5193626433611,577.2858236334287,577.8188922195695,580.1522109028883,580.6520585217513,581.7187811578624,None,0.03888888888888886,1.6479994151741266,581.7187811578624,None,581.7187811578624,None,,,,,,,022,001,2021_Feb_16_1603,deception_task,2020.2.10,60.05471449821671,
1,Indirect,TRUTH,Are you from Woodlands Primary School?,,video/V38.mp4,,,,,,,,,,0,32,32,32,,,,,,583.9686425714754,584.5017063454725,586.0350880343467,586.5349276331253,589.0177146838978,589.551014568191,591.5176627137698,592.0176797164604,593.8837830759585,None,0.03888888888888886,1.5841553346253932,593.8837830759585,None,593.8837830759585,None,,,,,,,022,001,2021_Feb_16_1603,deception_task,2020.2.10,60.05471449821671,
19,Direct,LIE,Which MRT station is closest to your house?,,video/V24.mp4,,,,,,,,,,0,33,33,33,,,,,,596.6340284897014,597.1504420009442,598.1171209434979,598.616986848414,601.1498568579555,601.683454125654,603.5497740269639,604.0497406637296,605.8995386227034,None,0.02870370370370373,2.2996351197361946,605.8995386227034,None,605.8995386227034,None,,,,,,,022,001,2021_Feb_16_1603,deception_task,2020.2.10,60.05471449821671,
19,Direct,TRUTH,Which MRT station is closest to your house?,,video/V17.mp4,,,,,,,,,,0,34,34,34,,,,,,613.015692668967,613.5489739468321,614.981924734544,615.4821951705962,618.6983714168891,619.2317409152165,621.3148693628609,621.8146698242053,623.8142207013443,None,0.02870370370370373,2.250716671347618,623.8142207013443,None,623.8142207013443,None,,,,,,,022,001,2021_Feb_16_1603,deception_task,2020.2.10,60.05471449821671,
3,Direct,LIE,Who is your closest friend back in secondary school?,,video/V36.mp4,,,,,,,,,,0,35,35,35,,,,,,627.0642611226067,627.564059979748,628.5302182608284,629.0306526264176,631.6968251513317,632.2301920833997,634.7635064036585,635.2633213009685,636.5465544583276,None,0.02870370370370373,2.066879187244922,636.5465544583276,None,636.5465544583276,None,,,,,,,022,001,2021_Feb_16_1603,deception_task,2020.2.10,60.05471449821671,
30,Direct,LIE,What brand of laptop do you mainly use?,,video/V4.mp4,,,,,,,,,,0,36,36,36,,,,,,639.2292543789372,639.7463900153525,642.3626406234689,642.8790098638274,645.9954372337088,646.5290726767853,648.2285373867489,648.7284571863711,650.3451367062517,None,0.041666666666666685,1.7643485092557967,650.3451367062517,None,650.3451367062517,None,,,,,,,022,001,2021_Feb_16_1603,deception_task,2020.2.10,60.05471449821671,
15,Indirect,TRUTH,Are you from Ngee Ann Polytechnic?,,video/V37.mp4,,,,,,,,,,0,37,37,37,,,,,,652.6616354226135,653.1951345247217,654.0110564390197,654.5109804091044,657.3947503324598,657.9276421568356,659.76080396818,660.2607876071706,661.4606863618828,None,0.987037037037037,3.933443860616535,661.4606863618828,None,661.4606863618828,None,,,,,,,022,001,2021_Feb_16_1603,deception_task,2020.2.10,60.05471449821671,
17,Indirect,TRUTH,Did you celebrate your 21st birthday at NTU?,,video/V23.mp4,,,,,,,,,,0,38,38,38,,,,,,665.8437675237656,666.34355419036,671.4926995099522,671.993080301676,674.8093599099666,675.342919964809,678.6424363879487,679.158899623435,680.8256662734784,None,0.987037037037037,1.748532010242343,680.8256662734784,None,680.8256662734784,None,,,,,,,022,001,2021_Feb_16_1603,deception_task,2020.2.10,60.05471449821671,
24,Indirect,LIE,Is your mum 56 years old this year?,,video/V9.mp4,,,,,,,,,,0,39,39,39,,,,,,683.1419731499627,683.6752932448871,685.5252121463418,686.0250568781048,688.7908595823683,689.3246964891441,691.5244656400755,692.0244130287319,693.6575939594768,None,0.987037037037037,2.0997248156927526,693.6575939594768,None,693.6575939594768,None,,,,,,,022,001,2021_Feb_16_1603,deception_task,2020.2.10,60.05471449821671,
29,Direct,TRUTH,What brand of handphone do you use?,,,bit/B16.mp4,,,,,,,,,,,,,0,0,0,0,,763.1341292215511,763.6501680361107,,,,,,,772.2328746290877,None,0.987037037037037,2.8166164504364133,772.2328746290877,None,772.2328746290877,None,765.0000692931935,765.5000994484872,767.5832003070973,768.100136404857,770.1332146152854,770.6332373921759,022,001,2021_Feb_16_1603,deception_task,2020.2.10,60.05471449821671,
23,Direct,LIE,What course are you studying?,,,bit/B36.mp4,,,,,,,,,,,,,0,1,1,1,,775.5160724986345,776.0491888839751,,,,,,,802.9297761316411,None,0,2.7674564383924007,802.9297761316411,None,802.9297761316411,None,792.2975069195963,792.7975617768243,794.3639478911646,794.8807162092999,800.7967058769427,801.2969365338795,022,001,2021_Feb_16_1603,deception_task,2020.2.10,60.05471449821671,
26,Indirect,TRUTH,Do you not smoke at all? ,,,bit/B20.mp4,,,,,,,,,,,,,0,2,2,2,,806.396279274486,806.8959308839403,,,,,,,825.9106852072291,None,0.9805555555555556,6.351577126421034,825.9106852072291,None,825.9106852072291,None,812.1624018182047,812.6622064500116,814.5453992509283,815.078733140137,823.4111667308025,823.9110108213499,022,001,2021_Feb_16_1603,deception_task,2020.2.10,60.05471449821671,
17,Direct,TRUTH,Where did you celebrate your 21st birthday?,,,bit/B8.mp4,,,,,,,,,,,,,0,3,3,3,,833.1936572319828,833.7101503019221,,,,,,,848.4256663373671,None,0.9796296296296296,2.216609007678926,848.4256663373671,None,848.4256663373671,None,834.843374541495,835.3433815990575,837.0429890658706,837.5600092131644,845.9088652976789,846.4257638612762,022,001,2021_Feb_16_1603,deception_task,2020.2.10,60.05471449821671,
1,Indirect,LIE,Are you from Fuhua Primary School?,,,bit/B30.mp4,,,,,,,,,,,,,0,4,4,4,,851.4082872127183,851.941697452683,,,,,,,868.0902797649615,None,0.9796296296296296,1.3644595704972744,868.0902797649615,None,868.0902797649615,None,860.3406714638695,860.8407041858882,862.373884411063,862.9072253582999,865.9399673677981,866.4400719492696,022,001,2021_Feb_16_1603,deception_task,2020.2.10,60.05471449821671,
23,Direct,TRUTH,What course are you studying?,,,bit/B15.mp4,,,,,,,,,,,,,0,5,5,5,,870.1397535214201,870.6732420371845,,,,,,,881.6555796442553,None,0.9796296296296296,1.5320259798318148,881.6555796442553,None,881.6555796442553,None,871.7396842921153,872.2730409586802,873.6891791573726,874.2228277535178,879.7555559687316,880.2555832369253,022,001,2021_Feb_16_1603,deception_task,2020.2.10,60.05471449821671,
19,Indirect,LIE,Is the Redhill station the closest MRT to your house?,,,bit/B1.mp4,,,,,,,,,,,,,0,6,6,6,,883.8217496024445,884.355330188293,,,,,,,897.27027596673,None,0.02777777777777779,4.216426792088896,897.27027596673,None,897.27027596673,None,888.7878693873063,889.2878767657094,891.0208450690843,891.5546919209883,894.8542221384123,895.3541592615657,022,001,2021_Feb_16_1603,deception_task,2020.2.10,60.05471449821671,
24,Direct,LIE,"How old is your mum? (Eg. 45, 52)",,,bit/B23.mp4,,,,,,,,,,,,,0,7,7,7,,902.6534232134,903.1866608620621,,,,,,,913.3856097226962,None,0.02777777777777779,1.5482521425001323,913.3856097226962,None,913.3856097226962,None,906.586078221444,907.0862758355215,908.8692513890564,909.4028140106238,911.3358360161074,911.8358555850573,022,001,2021_Feb_16_1603,deception_task,2020.2.10,60.05471449821671,
3,Indirect,LIE,Is Jane your closest friend back in secondary school?,,,bit/B14.mp4,,,,,,,,,,,,,0,8,8,8,,915.768677410204,916.285357507877,,,,,,,949.5319220400415,None,0.02777777777777779,2.099925638176501,949.5319220400415,None,949.5319220400415,None,941.5992965451442,942.0994354523718,943.5656771422364,944.0993408160284,947.6656338982284,948.1652948106639,022,001,2021_Feb_16_1603,deception_task,2020.2.10,60.05471449821671,
22,Indirect,LIE,Are you in your 3rd year in NTU?,,,bit/B40.mp4,,,,,,,,,,,,,0,9,9,9,,952.2480687722564,952.7650876366533,,,,,,,961.647385078948,None,0.02777777777777779,2.333606442902237,961.647385078948,None,961.647385078948,None,954.1144364727661,954.6143735954538,956.2977372552268,956.8313521672972,959.8308379217051,960.3307692701928,022,001,2021_Feb_16_1603,deception_task,2020.2.10,60.05471449821671,
15,Direct,TRUTH,Which polytechnic or junior college are you from?,,,bit/B3.mp4,,,,,,,,,,,,,0,10,10,10,,964.9469406399876,965.4636306823231,,,,,,,977.1290602297522,None,0.9981481481481482,2.8332721670158207,977.1290602297522,None,977.1290602297522,None,967.6299745151773,968.1299761193804,969.7464169627056,970.2631942634471,974.6957825450227,975.1961213117465,022,001,2021_Feb_16_1603,deception_task,2020.2.10,60.05471449821671,
19,Indirect,TRUTH,Is the Chinese Garden station the closest MRT to your house?,,,bit/B6.mp4,,,,,,,,,,,,,0,11,11,11,,980.5956586510874,981.1286451122724,,,,,,,998.0103737725876,None,0.9833333333333334,2.166658218950033,998.0103737725876,None,998.0103737725876,None,984.3446208569221,984.8450475232676,986.8778338041157,987.4115738286637,995.7605235869996,996.2605075468309,022,001,2021_Feb_16_1603,deception_task,2020.2.10,60.05471449821671,
25,Indirect,LIE,Is your dad 55 years old this year?,,,bit/B24.mp4,,,,,,,,,,,,,0,12,12,12,,1001.1099045034498,1001.64354764577,,,,,,,1017.5583525919355,None,0.04814814814814816,2.099519502837211,1017.5583525919355,None,1017.5583525919355,None,1004.9264872698113,1005.4265501471236,1007.526221388951,1008.0593884615228,1015.0586942462251,1015.5585457147099,022,001,2021_Feb_16_1603,deception_task,2020.2.10,60.05471449821671,
18,Indirect,TRUTH,Was the last country you visited Malaysia?,,,bit/B33.mp4,,,,,,,,,,,,,0,13,13,13,,1020.2916744193062,1020.8081017248333,,,,,,,1037.040003361646,None,0.9648148148148148,3.149829590227455,1037.040003361646,None,1037.040003361646,None,1024.107615260873,1024.6077188798226,1026.240936382208,1026.774556106422,1035.0897587826476,1035.5897616697475,022,001,2021_Feb_16_1603,deception_task,2020.2.10,60.05471449821671,
6,Indirect,LIE,Were you in the Concert Band CCA during secondary school?,,,bit/B34.mp4,,,,,,,,,,,,,0,14,14,14,,1040.7560336431488,1041.2892895773984,,,,,,,1064.6372102033347,None,0.045370370370370394,2.1659094667993486,1064.6372102033347,None,1064.6372102033347,None,1051.1884984155186,1051.688346997369,1053.2882456877269,1053.821644058451,1062.170495009981,1062.6703981277533,022,001,2021_Feb_16_1603,deception_task,2020.2.10,60.05471449821671,
26,Indirect,LIE,Do you smoke regularly?,,,bit/B4.mp4,,,,,,,,,,,,,0,15,15,15,,1067.419986218214,1067.9368915185332,,,,,,,1082.3686447525397,None,0.045370370370370394,1.7150932187214494,1082.3686447525397,None,1082.3686447525397,None,1068.8697868078016,1069.3698714994825,1071.0697449110448,1071.6032469007187,1079.9519146741368,1080.4521222328767,022,001,2021_Feb_16_1603,deception_task,2020.2.10,60.05471449821671,
21,Direct,TRUTH,"Which school in NTU are you from? (Eg. NBS, SSS, SOH)",,,bit/B28.mp4,,,,,,,,,,,,,0,16,16,16,,1084.7185832229443,1085.25153664127,,,,,,,1100.3000592198223,None,0.9777777777777779,3.217184206005186,1100.3000592198223,None,1100.3000592198223,None,1087.1516575193964,1087.668001416605,1089.0844094096683,1089.6178947179578,1097.933832671959,1098.433682857547,022,001,2021_Feb_16_1603,deception_task,2020.2.10,60.05471449821671,
28,Indirect,LIE,Is your religion Buddhism?,,,bit/B12.mp4,,,,,,,,,,,,,0,17,17,17,,1104.0660341945477,1104.5659889616072,,,,,,,1119.3483290066943,None,0.037962962962962976,6.499813935253769,1119.3483290066943,None,1119.3483290066943,None,1106.5165187339298,1107.016150132753,1108.7491251728497,1109.2826897189952,1117.5983206657693,1118.0983027010225,022,001,2021_Feb_16_1603,deception_task,2020.2.10,60.05471449821671,
1,Direct,TRUTH,Which primary school are you from?,,,bit/B29.mp4,,,,,,,,,,,,,0,18,18,18,,1126.5474732355215,1127.0641546160914,,,,,,,1141.3627609242685,None,0.9787037037037036,1.8163450518622994,1141.3627609242685,None,1141.3627609242685,None,1128.4637025422417,1128.9635530482046,1130.8302524583414,1131.3470040946268,1138.9294431391172,1139.4463266250677,022,001,2021_Feb_16_1603,deception_task,2020.2.10,60.05471449821671,
21,Direct,LIE,"Which school in NTU are you from? (Eg. NBS, SSS, SOH)",,,bit/B17.mp4,,,,,,,,,,,,,0,19,19,19,,1143.779094170779,1144.2957871002145,,,,,,,1159.6776370238513,None,0.04722222222222222,1.8824453321285546,1159.6776370238513,None,1159.6776370238513,None,1145.8456772575155,1146.3455624105409,1148.4951465870254,1149.0283011482097,1157.3610164029524,1157.8609907389618,022,001,2021_Feb_16_1603,deception_task,2020.2.10,60.05471449821671,
30,Direct,TRUTH,What brand of laptop do you mainly use?,,,bit/B11.mp4,,,,,,,,,,,,,0,20,20,20,,1162.460529810749,1162.9939111787826,,,,,,,1175.1261123805307,None,0.9916666666666667,2.9154446250759065,1175.1261123805307,None,1175.1261123805307,None,1164.3600450148806,1164.8602301175706,1166.843306852039,1167.3601390095428,1172.7264290763997,1173.226371011231,022,001,2021_Feb_16_1603,deception_task,2020.2.10,60.05471449821671,
25,Direct,TRUTH,"How old is your dad? (Eg. 45, 52)",,,bit/B2.mp4,,,,,,,,,,,,,0,21,21,21,,1178.608862538822,1179.1421473454684,,,,,,,1194.0403353921138,None,0.9981481481481482,3.735892092809081,1194.0403353921138,None,1194.0403353921138,None,1180.7086928985082,1181.22555745719,1183.0416516424157,1183.5586368227378,1191.9074884154834,1192.407635663636,022,001,2021_Feb_16_1603,deception_task,2020.2.10,60.05471449821671,
15,Indirect,LIE,Are you from Temasek Junior College?,,,bit/B32.mp4,,,,,,,,,,,,,0,22,22,22,,1198.4236529846676,1198.9402506360784,,,,,,,1212.6056551607326,None,0.00833333333333336,1.5986119541339576,1212.6056551607326,None,1212.6056551607326,None,1200.073512409348,1200.5735913263634,1202.0398307703435,1202.5731534315273,1210.889058664441,1211.3889970704913,022,001,2021_Feb_16_1603,deception_task,2020.2.10,60.05471449821671,
27,Direct,LIE,How frequently do you drink alcohol?,,,bit/B26.mp4,,,,,,,,,,,,,0,23,23,23,,1215.0887450482696,1215.6219624867663,,,,,,,1232.120125895366,None,0.05185185185185187,4.066956179682165,1232.120125895366,None,1232.120125895366,None,1219.0051087709144,1219.5048370514996,1221.0378774073906,1221.5544872493483,1229.9207375361584,1230.4203923535533,022,001,2021_Feb_16_1603,deception_task,2020.2.10,60.05471449821671,
16,Indirect,LIE,Do you have 2 siblings?,,,bit/B19.mp4,,,,,,,,,,,,,0,24,24,24,,1236.8867806494236,1237.403079955373,,,,,,,1250.5853679659776,None,0.033333333333333326,2.5498728337697685,1250.5853679659776,None,1250.5853679659776,None,1238.0529961618595,1238.5529644023627,1240.0692261741497,1240.6028426899575,1248.951998082921,1249.4518569298089,022,001,2021_Feb_16_1603,deception_task,2020.2.10,60.05471449821671,
16,Indirect,TRUTH,Do you have 3 siblings?,,,bit/B13.mp4,,,,,,,,,,,,,0,25,25,25,,1253.7182354736142,1254.2176442355849,,,,,,,1280.5321895885281,None,0.9935185185185185,3.7316491659730673,1280.5321895885281,None,1280.5321895885281,None,1267.3334502121434,1267.8332907734439,1269.7663519168273,1270.283266521059,1278.6323792468756,1279.148891885765,022,001,2021_Feb_16_1603,deception_task,2020.2.10,60.05471449821671,
20,Indirect,TRUTH,Is your house on the 6th floor of the building?,,,bit/B21.mp4,,,,,,,,,,,,,0,26,26,26,,1284.8317926283926,1285.348376485519,,,,,,,1298.7803350323811,None,0.9953703703703703,1.5652475883252919,1298.7803350323811,None,1298.7803350323811,None,1286.231715571601,1286.748055298347,1288.1644658581354,1288.6977676674724,1297.0470638922416,1297.547093405854,022,001,2021_Feb_16_1603,deception_task,2020.2.10,60.05471449821671,
17,Direct,LIE,Where did you celebrate your 21st birthday?,,,bit/B25.mp4,,,,,,,,,,,,,0,27,27,27,,1301.2299550105818,1301.7466123313643,,,,,,,1313.8118474083021,None,0.01944444444444443,2.2513104756362736,1313.8118474083021,None,1313.8118474083021,None,1303.3296856009401,1303.8298710244708,1305.5295259701088,1306.0629852931015,1311.9958860357292,1312.4956653239205,022,001,2021_Feb_16_1603,deception_task,2020.2.10,60.05471449821671,
3,Indirect,TRUTH,Is Irfan your closest friend back in secondary school?,,,bit/B27.mp4,,,,,,,,,,,,,0,28,28,28,,1316.595120666083,1317.1118123126216,,,,,,,1326.7608488802798,None,0.9638888888888889,1.9323342060670257,1326.7608488802798,None,1326.7608488802798,None,1317.9615236553364,1318.4615929485299,1320.4614668730646,1320.9947715695016,1324.8275869148783,1325.3276331103407,022,001,2021_Feb_16_1603,deception_task,2020.2.10,60.05471449821671,
20,Indirect,LIE,Is your house on the 12th floor of the building?,,,bit/B5.mp4,,,,,,,,,,,,,0,29,29,29,,1329.5104334419593,1330.010471938178,,,,,,,1344.1419545435347,None,0.037962962962962976,2.335498853586614,1344.1419545435347,None,1344.1419545435347,None,1331.1102182478644,1331.610278237611,1333.5600480302237,1334.0936045562848,1342.4425097233616,1342.9424891918898,022,001,2021_Feb_16_1603,deception_task,2020.2.10,60.05471449821671,
2,Direct,TRUTH,Which secondary school did you attend?,,,bit/B31.mp4,,,,,,,,,,,,,0,30,30,30,,1347.025656457059,1347.5253911535256,,,,,,,1361.3074941257946,None,1,2.7333308099769056,1361.3074941257946,None,1361.3074941257946,None,1348.2587004695088,1348.7586456122808,1350.8082502563484,1351.3415440451354,1359.690841553267,1360.1906125005335,022,001,2021_Feb_16_1603,deception_task,2020.2.10,60.05471449821671,
2,Indirect,LIE,Are you from Anderson Secondary School?,,,bit/B10.mp4,,,,,,,,,,,,,0,31,31,31,,1364.8402842562646,1365.3739155288786,,,,,,,1380.3889014711604,None,0,3.7677563880570233,1380.3889014711604,None,1380.3889014711604,None,1367.223433106672,1367.7235001544468,1369.539732605219,1370.073387938086,1378.4224948897026,1378.9224753207527,022,001,2021_Feb_16_1603,deception_task,2020.2.10,60.05471449821671,
29,Direct,LIE,What brand of handphone do you use?,,,bit/B37.mp4,,,,,,,,,,,,,0,32,32,32,,1384.90528514795,1385.4050044463947,,,,,,,1398.9701083153486,None,0.09166666666666667,1.5314713134430349,1398.9701083153486,None,1398.9701083153486,None,1386.171451962553,1386.671451962553,1388.5545074599795,1389.0709536927752,1397.420412243344,1397.9201931352727,022,001,2021_Feb_16_1603,deception_task,2020.2.10,60.05471449821671,
27,Direct,TRUTH,How frequently do you drink alcohol?,,,bit/B35.mp4,,,,,,,,,,,,,0,33,33,33,,1401.1369108953513,1401.6534822410904,,,,,,,1414.7355651953258,None,0.03425925925925927,1.9150497177615762,1414.7355651953258,None,1414.7355651953258,None,1402.4867495959625,1402.9868474407122,1404.9530766187236,1405.4863521223888,1412.7023429446854,1413.2022268143483,022,001,2021_Feb_16_1603,deception_task,2020.2.10,60.05471449821671,
30,Indirect,LIE,Do you use a HP laptop?,,,bit/B9.mp4,,,,,,,,,,,,,0,34,34,34,,1418.2352100675926,1418.7350746891461,,,,,,,1431.9168481333181,None,0.9935185185185185,4.500833122525364,1431.9168481333181,None,1431.9168481333181,None,1419.401873739902,1419.9014544519596,1421.61777826678,1422.1349299428985,1429.650359554682,1430.1504551535472,022,001,2021_Feb_16_1603,deception_task,2020.2.10,60.05471449821671,
28,Indirect,TRUTH,Is your religion Christianity?,,,bit/B18.mp4,,,,,,,,,,,,,0,35,35,35,,1436.866539329756,1437.365967339836,,,,,,,1451.8815255928785,None,0.02777777777777779,2.0026995483785868,1451.8815255928785,None,1451.8815255928785,None,1438.2665665335953,1438.7664722176269,1440.565894966945,1441.0829103025608,1449.465124656912,1449.9815317522734,022,001,2021_Feb_16_1603,deception_task,2020.2.10,60.05471449821671,
6,Indirect,TRUTH,Were you in the Rugby CCA during secondary school?,,,bit/B38.mp4,,,,,,,,,,,,,0,36,36,36,,1454.7148558250628,1455.2479850426316,,,,,,,1468.8966302317567,None,0.036111111111111094,1.4987700451165438,1468.8966302317567,None,1468.8966302317567,None,1455.981345366221,1456.4809976168908,1457.9644596348517,1458.497622857336,1466.84697522223,1467.3468921347521,022,001,2021_Feb_16_1603,deception_task,2020.2.10,60.05471449821671,
24,Direct,TRUTH,"How old is your mum? (Eg. 45, 52)",,,bit/B39.mp4,,,,,,,,,,,,,0,37,37,37,,1471.629255918786,1472.1292437287048,,,,,,,1485.2116266326047,None,0.987037037037037,2.9009498306550086,1485.2116266326047,None,1485.2116266326047,None,1472.8462890270166,1473.3463689065538,1474.7958332956769,1475.3293240573257,1483.6453216806985,1484.1451856605709,022,001,2021_Feb_16_1603,deception_task,2020.2.10,60.05471449821671,
18,Direct,LIE,What was the last country you visited?,,,bit/B22.mp4,,,,,,,,,,,,,0,38,38,38,,1488.8113607517444,1489.3446635236032,,,,,,,1503.0266875145026,None,0.025000000000000022,1.6483580716885626,1503.0266875145026,None,1503.0266875145026,None,1490.494494075887,1490.994509795215,1492.5942929973826,1493.1274074581452,1501.4767957529984,1501.9766610162333,022,001,2021_Feb_16_1603,deception_task,2020.2.10,60.05471449821671,
22,Direct,TRUTH,"Which year in NTU are you currently in? (Eg. 1, 2, 3, 4)",,,bit/B7.mp4,,,,,,,,,,,,,0,39,39,39,,1505.509817181155,1506.0428395718336,,,,,,,1519.8582696965896,None,0.9537037037037037,4.598836835939437,1519.8582696965896,None,1519.8582696965896,None,1506.9760694573633,1507.4762439737096,1508.8256572908722,1509.342731012497,1517.7082675155252,1518.208345149178,022,001,2021_Feb_16_1603,deception_task,2020.2.10,60.05471449821671,
