Item,pic,correct,part,partimg,parta.thisRepN,parta.thisTrialN,parta.thisN,parta.thisIndex,trialsA.thisRepN,trialsA.thisTrialN,trialsA.thisN,trialsA.thisIndex,partb.thisRepN,partb.thisTrialN,partb.thisN,partb.thisIndex,trialB.thisRepN,trialB.thisTrialN,trialB.thisN,trialB.thisIndex,partc.thisRepN,partc.thisTrialN,partc.thisN,partc.thisIndex,trialC.thisRepN,trialC.thisTrialN,trialC.thisN,trialC.thisIndex,textboxsubjectid.text,image_2.started,image_2.stopped,mouse_2.x,mouse_2.y,mouse_2.leftButton,mouse_2.midButton,mouse_2.rightButton,mouse_2.time,mouse_2.clicked_name,participant,session,date,expName,psychopyVersion,frameRate,
,,,,,,,,,,,,,,,,,,,,,,,,,,,,,Enter ID ,,,,,,,,,,777,001,2020_Dec_30_1638,untitled,2020.2.10,59.98062625857886,
,,,,,,,,,,,,,,,,,,,,,,,,,,,,,,,,,,,,,,,777,001,2020_Dec_30_1638,untitled,2020.2.10,59.98062625857886,
1,images/4,b,a,images/3,0,0,0,0,,,,,,,,,,,,,,,,,,,,,,,,,,,,,,,777,001,2020_Dec_30_1638,untitled,2020.2.10,59.98062625857886,
1,images/4,b,a,images/3,,,,,0,0,0,0,,,,,,,,,,,,,,,,,,10.025140416997601,None,-0.31333333333333335,0.19111111111111112,1,0,0,6.18738545900851,a,777,001,2020_Dec_30_1638,untitled,2020.2.10,59.98062625857886,
2,images/5,a,b,images/28,,,,,0,1,1,1,,,,,,,,,,,,,,,,,,16.224070541997207,None,0.42,0.1688888888888889,1,0,0,7.08847670799878,b,777,001,2020_Dec_30_1638,untitled,2020.2.10,59.98062625857886,
3,images/6,a,c,images/61,,,,,0,2,2,2,,,,,,,,,,,,,,,,,,23.324353125004563,None,0.3711111111111111,-0.31333333333333335,1,0,0,7.571624541989877,c,777,001,2020_Dec_30_1638,untitled,2020.2.10,59.98062625857886,
4,images/7,d,None,None,,,,,0,3,3,3,,,,,,,,,,,,,,,,,,30.90708070799883,None,-0.4222222222222222,-0.3877777777777778,1,0,0,6.50440904199786,d,777,001,2020_Dec_30_1638,untitled,2020.2.10,59.98062625857886,
5,images/8,b,None,None,,,,,0,4,4,4,,,,,,,,,,,,,,,,,,37.420359333002125,None,-0.3711111111111111,0.10333333333333333,1,0,0,3.326211207997403,a,777,001,2020_Dec_30_1638,untitled,2020.2.10,59.98062625857886,
6,images/9,b,None,None,,,,,0,5,5,5,,,,,,,,,,,,,,,,,,40.75856441700307,None,0.22777777777777777,0.19444444444444445,1,0,0,2.854683458004729,b,777,001,2020_Dec_30_1638,untitled,2020.2.10,59.98062625857886,
7,images/10,c,None,None,,,,,0,6,6,6,,,,,,,,,,,,,,,,,,43.623844292000285,None,0.2611111111111111,-0.28,1,0,0,3.5215812500100583,c,777,001,2020_Dec_30_1638,untitled,2020.2.10,59.98062625857886,
8,images/11,c,None,None,,,,,0,7,7,7,,,,,,,,,,,,,,,,,,47.15407154199784,None,-0.4477777777777778,-0.3277777777777778,1,0,0,2.9581552919989917,d,777,001,2020_Dec_30_1638,untitled,2020.2.10,59.98062625857886,
9,images/12,d,None,None,,,,,0,8,8,8,,,,,,,,,,,,,,,,,,50.12228995800251,None,-0.29777777777777775,0.08,1,0,0,1.4405633340065833,a,777,001,2020_Dec_30_1638,untitled,2020.2.10,59.98062625857886,
10,images/13,d,None,None,,,,,0,9,9,9,,,,,,,,,,,,,,,,,,51.57312433300831,None,0.56,0.08222222222222222,1,0,0,1.2231173329928424,b,777,001,2020_Dec_30_1638,untitled,2020.2.10,59.98062625857886,
11,images/14,c,None,None,,,,,0,10,10,10,,,,,,,,,,,,,,,,,,52.806388708006125,None,0.48,-0.32555555555555554,1,0,0,2.0063012089958647,c,777,001,2020_Dec_30_1638,untitled,2020.2.10,59.98062625857886,
12,images/15,a,None,None,,,,,0,11,11,11,,,,,,,,,,,,,,,,,,54.821669249999104,None,-0.29888888888888887,-0.29777777777777775,1,0,0,1.6406163750070846,d,777,001,2020_Dec_30_1638,untitled,2020.2.10,59.98062625857886,
13,images/16,b,None,None,,,,,0,12,12,12,,,,,,,,,,,,,,,,,,56.47193637500459,None,-0.31333333333333335,0.09555555555555556,1,0,0,1.0395333749911515,a,777,001,2020_Dec_30_1638,untitled,2020.2.10,59.98062625857886,
14,images/17,b,None,None,,,,,0,13,13,13,,,,,,,,,,,,,,,,,,57.51949908300594,None,-0.31333333333333335,0.09555555555555556,1,0,0,0.17543004199978895,a,777,001,2020_Dec_30_1638,untitled,2020.2.10,59.98062625857886,
15,images/18,d,None,None,,,,,0,14,14,14,,,,,,,,,,,,,,,,,,57.701852042009705,None,-0.31333333333333335,0.09555555555555556,1,0,0,0.4771338749997085,a,777,001,2020_Dec_30_1638,untitled,2020.2.10,59.98062625857886,
16,images/19,b,None,None,,,,,0,15,15,15,,,,,,,,,,,,,,,,,,58.18651083300938,None,-0.31333333333333335,0.09555555555555556,1,0,0,0.3587476249958854,a,777,001,2020_Dec_30_1638,untitled,2020.2.10,59.98062625857886,
17,images/20,c,None,None,,,,,0,16,16,16,,,,,,,,,,,,,,,,,,58.55346250000002,None,-0.31333333333333335,0.09555555555555556,1,0,0,0.14147729099204298,a,777,001,2020_Dec_30_1638,untitled,2020.2.10,59.98062625857886,
18,images/21,b,None,None,,,,,0,17,17,17,,,,,,,,,,,,,,,,,,58.701041000007535,None,-0.31333333333333335,0.09555555555555556,1,0,0,0.12702437498955987,a,777,001,2020_Dec_30_1638,untitled,2020.2.10,59.98062625857886,
19,images/22,a,None,None,,,,,0,18,18,18,,,,,,,,,,,,,,,,,,58.83459374999802,None,-0.31333333333333335,0.09555555555555556,1,0,0,0.1435488749993965,a,777,001,2020_Dec_30_1638,untitled,2020.2.10,59.98062625857886,
20,images/23,d,None,None,,,,,0,19,19,19,,,,,,,,,,,,,,,,,,58.985204917000374,None,-0.31333333333333335,0.09555555555555556,1,0,0,0.12610358399979305,a,777,001,2020_Dec_30_1638,untitled,2020.2.10,59.98062625857886,
21,images/24,d,None,None,,,,,0,20,20,20,,,,,,,,,,,,,,,,,,59.11765862500761,None,-0.31333333333333335,0.09555555555555556,1,0,0,0.12631987499480601,a,777,001,2020_Dec_30_1638,untitled,2020.2.10,59.98062625857886,
22,images/25,a,None,None,,,,,0,21,21,21,,,,,,,,,,,,,,,,,,59.25089991700952,None,-0.31333333333333335,0.09555555555555556,1,0,0,0.31110295800317544,a,777,001,2020_Dec_30_1638,untitled,2020.2.10,59.98062625857886,
23,images/26,b,None,None,,,,,0,22,22,22,,,,,,,,,,,,,,,,,,59.56718991699745,None,-0.31333333333333335,0.09555555555555556,1,0,0,0.12733587498951238,a,777,001,2020_Dec_30_1638,untitled,2020.2.10,59.98062625857886,
24,images/27,d,None,None,,,,,0,23,23,23,,,,,,,,,,,,,,,,,,59.7012849169987,None,-0.31333333333333335,0.09555555555555556,1,0,0,0.29283770799520425,a,777,001,2020_Dec_30_1638,untitled,2020.2.10,59.98062625857886,
2,images/5,a,b,images/28,,,,,,,,,0,0,0,0,,,,,,,,,,,,,,,,,,,,,,,777,001,2020_Dec_30_1638,untitled,2020.2.10,59.98062625857886,
25,images/29,b,None,None,,,,,,,,,,,,,0,0,0,0,,,,,,,,,,60.15921275000437,None,-0.31333333333333335,0.09555555555555556,1,0,0,0.18450687499716878,a,777,001,2020_Dec_30_1638,untitled,2020.2.10,59.98062625857886,
26,images/30,b,None,None,,,,,,,,,,,,,0,1,1,1,,,,,,,,,,60.35110212500149,None,-0.31333333333333335,0.09555555555555556,1,0,0,0.3444517919997452,a,777,001,2020_Dec_30_1638,untitled,2020.2.10,59.98062625857886,
27,images/31,d,None,None,,,,,,,,,,,,,0,2,2,2,,,,,,,,,,60.70202062500175,None,-0.31333333333333335,0.09555555555555556,1,0,0,0.17587020799692255,a,777,001,2020_Dec_30_1638,untitled,2020.2.10,59.98062625857886,
28,images/32,b,None,None,,,,,,,,,,,,,0,3,3,3,,,,,,,,,,60.88427437499922,None,-0.31333333333333335,0.09555555555555556,1,0,0,0.19384304199775215,a,777,001,2020_Dec_30_1638,untitled,2020.2.10,59.98062625857886,
29,images/33,c,None,None,,,,,,,,,,,,,0,4,4,4,,,,,,,,,,61.08440370800963,None,-0.31333333333333335,0.09555555555555556,1,0,0,0.24427737499354407,a,777,001,2020_Dec_30_1638,untitled,2020.2.10,59.98062625857886,
30,images/34,d,None,None,,,,,,,,,,,,,0,5,5,5,,,,,,,,,,61.33644658300909,None,-0.31333333333333335,0.09555555555555556,1,0,0,0.14196691699908115,a,777,001,2020_Dec_30_1638,untitled,2020.2.10,59.98062625857886,
31,images/35,d,None,None,,,,,,,,,,,,,0,6,6,6,,,,,,,,,,61.48485333300778,None,-0.31333333333333335,0.09555555555555556,1,0,0,0.16032187499513384,a,777,001,2020_Dec_30_1638,untitled,2020.2.10,59.98062625857886,
32,images/36,d,None,None,,,,,,,,,,,,,0,7,7,7,,,,,,,,,,61.65218916699814,None,-0.31333333333333335,0.09555555555555556,1,0,0,0.2252246669959277,a,777,001,2020_Dec_30_1638,untitled,2020.2.10,59.98062625857886,
33,images/37,b,None,None,,,,,,,,,,,,,0,8,8,8,,,,,,,,,,61.884340208009235,None,-0.31333333333333335,0.09555555555555556,1,0,0,0.11014191700087395,a,777,001,2020_Dec_30_1638,untitled,2020.2.10,59.98062625857886,
34,images/38,b,None,None,,,,,,,,,,,,,0,9,9,9,,,,,,,,,,62.0006389170012,None,-0.31333333333333335,0.09555555555555556,1,0,0,0.2946188749920111,a,777,001,2020_Dec_30_1638,untitled,2020.2.10,59.98062625857886,
35,images/39,c,None,None,,,,,,,,,,,,,0,10,10,10,,,,,,,,,,62.30161408300046,None,-0.31333333333333335,0.09555555555555556,1,0,0,0.1932551659992896,a,777,001,2020_Dec_30_1638,untitled,2020.2.10,59.98062625857886,
36,images/40,c,None,None,,,,,,,,,,,,,0,11,11,11,,,,,,,,,,62.501433292010915,None,-0.31333333333333335,0.09555555555555556,1,0,0,0.24339500001224224,a,777,001,2020_Dec_30_1638,untitled,2020.2.10,59.98062625857886,
37,images/41,a,None,None,,,,,,,,,,,,,0,12,12,12,,,,,,,,,,62.7523807920079,None,-0.31333333333333335,0.09555555555555556,1,0,0,0.2590551670000423,a,777,001,2020_Dec_30_1638,untitled,2020.2.10,59.98062625857886,
38,images/42,d,None,None,,,,,,,,,,,,,0,13,13,13,,,,,,,,,,63.01856700000644,None,-0.31333333333333335,0.09555555555555556,1,0,0,0.2257825840060832,a,777,001,2020_Dec_30_1638,untitled,2020.2.10,59.98062625857886,
39,images/43,a,None,None,,,,,,,,,,,,,0,14,14,14,,,,,,,,,,63.25020024999685,None,-0.31333333333333335,0.09555555555555556,1,0,0,0.11080087500158697,a,777,001,2020_Dec_30_1638,untitled,2020.2.10,59.98062625857886,
40,images/44,d,None,None,,,,,,,,,,,,,0,15,15,15,,,,,,,,,,63.369111833002535,None,-0.31333333333333335,0.09555555555555556,1,0,0,0.10985449999861885,a,777,001,2020_Dec_30_1638,untitled,2020.2.10,59.98062625857886,
41,images/45,d,None,None,,,,,,,,,,,,,0,16,16,16,,,,,,,,,,63.48560383300355,None,-0.31333333333333335,0.09555555555555556,1,0,0,0.2091647500055842,a,777,001,2020_Dec_30_1638,untitled,2020.2.10,59.98062625857886,
42,images/46,c,None,None,,,,,,,,,,,,,0,17,17,17,,,,,,,,,,63.7009881670092,None,-0.31333333333333335,0.09555555555555556,1,0,0,0.3940539169998374,a,777,001,2020_Dec_30_1638,untitled,2020.2.10,59.98062625857886,
43,images/47,b,None,None,,,,,,,,,,,,,0,18,18,18,,,,,,,,,,64.10257650000858,None,-0.31333333333333335,0.09555555555555556,1,0,0,0.5429169169947272,a,777,001,2020_Dec_30_1638,untitled,2020.2.10,59.98062625857886,
44,images/48,a,None,None,,,,,,,,,,,,,0,19,19,19,,,,,,,,,,64.65318187500816,None,-0.31333333333333335,0.09555555555555556,1,0,0,0.2254313749872381,a,777,001,2020_Dec_30_1638,untitled,2020.2.10,59.98062625857886,
45,images/49,a,None,None,,,,,,,,,,,,,0,20,20,20,,,,,,,,,,64.88484425000206,None,-0.31333333333333335,0.09555555555555556,1,0,0,0.16002820900757797,a,777,001,2020_Dec_30_1638,untitled,2020.2.10,59.98062625857886,
46,images/50,d,None,None,,,,,,,,,,,,,0,21,21,21,,,,,,,,,,65.05225683300523,None,-0.31333333333333335,0.09555555555555556,1,0,0,0.10869087500032037,a,777,001,2020_Dec_30_1638,untitled,2020.2.10,59.98062625857886,
47,images/51,c,None,None,,,,,,,,,,,,,0,22,22,22,,,,,,,,,,65.16767412499757,None,-0.31333333333333335,0.09555555555555556,1,0,0,0.31085879099555314,a,777,001,2020_Dec_30_1638,untitled,2020.2.10,59.98062625857886,
48,images/52,c,None,None,,,,,,,,,,,,,0,23,23,23,,,,,,,,,,65.48612429200148,None,-0.31333333333333335,0.09555555555555556,1,0,0,0.15889429100207053,a,777,001,2020_Dec_30_1638,untitled,2020.2.10,59.98062625857886,
49,images/53,d,None,None,,,,,,,,,,,,,0,24,24,24,,,,,,,,,,65.65232291699795,None,-0.31333333333333335,0.09555555555555556,1,0,0,0.22606208400975447,a,777,001,2020_Dec_30_1638,untitled,2020.2.10,59.98062625857886,
50,images/54,c,None,None,,,,,,,,,,,,,0,25,25,25,,,,,,,,,,65.8844338330091,None,-0.31333333333333335,0.09555555555555556,1,0,0,0.10996662499383092,a,777,001,2020_Dec_30_1638,untitled,2020.2.10,59.98062625857886,
51,images/55,a,None,None,,,,,,,,,,,,,0,26,26,26,,,,,,,,,,66.00072483300755,None,-0.31333333333333335,0.09555555555555556,1,0,0,0.21051683400582988,a,777,001,2020_Dec_30_1638,untitled,2020.2.10,59.98062625857886,
52,images/56,c,None,None,,,,,,,,,,,,,0,27,27,27,,,,,,,,,,66.21842491700954,None,-0.31333333333333335,0.09555555555555556,1,0,0,0.12620912499551196,a,777,001,2020_Dec_30_1638,untitled,2020.2.10,59.98062625857886,
53,images/57,d,None,None,,,,,,,,,,,,,0,28,28,28,,,,,,,,,,66.35088341700612,None,-0.31333333333333335,0.09555555555555556,1,0,0,0.1603953339945292,a,777,001,2020_Dec_30_1638,untitled,2020.2.10,59.98062625857886,
54,images/58,d,None,None,,,,,,,,,,,,,0,29,29,29,,,,,,,,,,66.51760625001043,None,-0.31333333333333335,0.09555555555555556,1,0,0,0.2774720419984078,a,777,001,2020_Dec_30_1638,untitled,2020.2.10,59.98062625857886,
55,images/59,b,None,None,,,,,,,,,,,,,0,30,30,30,,,,,,,,,,66.80217729200376,None,-0.31333333333333335,0.09555555555555556,1,0,0,0.47641095900326036,a,777,001,2020_Dec_30_1638,untitled,2020.2.10,59.98062625857886,
56,images/60,b,None,None,,,,,,,,,,,,,0,31,31,31,,,,,,,,,,67.2864871250058,None,-0.31333333333333335,0.09555555555555556,1,0,0,0.6098214590019779,a,777,001,2020_Dec_30_1638,untitled,2020.2.10,59.98062625857886,
3,images/6,a,c,images/61,,,,,,,,,,,,,,,,,0,0,0,0,,,,,,,,,,,,,,,777,001,2020_Dec_30_1638,untitled,2020.2.10,59.98062625857886,
57,images/62,c,None,None,,,,,,,,,,,,,,,,,,,,,0,0,0,0,,68.12859600000957,None,-0.31333333333333335,0.09555555555555556,1,0,0,0.18171974999131635,a,777,001,2020_Dec_30_1638,untitled,2020.2.10,59.98062625857886,
58,images/63,d,None,None,,,,,,,,,,,,,,,,,,,,,0,1,1,1,,68.31865341700905,None,-0.31333333333333335,0.09555555555555556,1,0,0,0.14232100000663195,a,777,001,2020_Dec_30_1638,untitled,2020.2.10,59.98062625857886,
59,images/64,b,None,None,,,,,,,,,,,,,,,,,,,,,0,2,2,2,,68.46758691700234,None,-0.31333333333333335,0.09555555555555556,1,0,0,0.11002312500204425,a,777,001,2020_Dec_30_1638,untitled,2020.2.10,59.98062625857886,
60,images/65,c,None,None,,,,,,,,,,,,,,,,,,,,,0,3,3,3,,68.58407045800413,None,-0.31333333333333335,0.09555555555555556,1,0,0,0.1283144170010928,a,777,001,2020_Dec_30_1638,untitled,2020.2.10,59.98062625857886,
61,images/66,a,None,None,,,,,,,,,,,,,,,,,,,,,0,4,4,4,,68.71811887501099,None,-0.31333333333333335,0.09555555555555556,1,0,0,0.1094340830022702,a,777,001,2020_Dec_30_1638,untitled,2020.2.10,59.98062625857886,
62,images/67,b,None,None,,,,,,,,,,,,,,,,,,,,,0,5,5,5,,68.83407191700826,None,-0.31333333333333335,0.09555555555555556,1,0,0,0.09415212500607595,a,777,001,2020_Dec_30_1638,untitled,2020.2.10,59.98062625857886,
63,images/68,d,None,None,,,,,,,,,,,,,,,,,,,,,0,6,6,6,,68.93401008300134,None,-0.31333333333333335,0.09555555555555556,1,0,0,0.11092166599701159,a,777,001,2020_Dec_30_1638,untitled,2020.2.10,59.98062625857886,
64,images/69,a,None,None,,,,,,,,,,,,,,,,,,,,,0,7,7,7,,69.05077654200431,None,-0.31333333333333335,0.09555555555555556,1,0,0,0.1279811660060659,a,777,001,2020_Dec_30_1638,untitled,2020.2.10,59.98062625857886,
65,images/70,a,None,None,,,,,,,,,,,,,,,,,,,,,0,8,8,8,,69.18401512500714,None,-0.31333333333333335,0.09555555555555556,1,0,0,0.09401775000151247,a,777,001,2020_Dec_30_1638,untitled,2020.2.10,59.98062625857886,
66,images/71,a,None,None,,,,,,,,,,,,,,,,,,,,,0,9,9,9,,69.284407500003,None,-0.31333333333333335,0.09555555555555556,1,0,0,0.09282341699872632,a,777,001,2020_Dec_30_1638,untitled,2020.2.10,59.98062625857886,
67,images/72,c,None,None,,,,,,,,,,,,,,,,,,,,,0,10,10,10,,69.38410912500694,None,-0.31333333333333335,0.09555555555555556,1,0,0,0.11084945801121648,a,777,001,2020_Dec_30_1638,untitled,2020.2.10,59.98062625857886,
68,images/73,a,None,None,,,,,,,,,,,,,,,,,,,,,0,11,11,11,,69.50099800000316,None,-0.31333333333333335,0.09555555555555556,1,0,0,0.4951445829938166,a,777,001,2020_Dec_30_1638,untitled,2020.2.10,59.98062625857886,
69,images/74,c,None,None,,,,,,,,,,,,,,,,,,,,,0,12,12,12,,70.00288870799704,None,-0.31333333333333335,0.09555555555555556,1,0,0,0.10872187500353903,a,777,001,2020_Dec_30_1638,untitled,2020.2.10,59.98062625857886,
70,images/75,d,None,None,,,,,,,,,,,,,,,,,,,,,0,13,13,13,,70.11910112500482,None,-0.31333333333333335,0.09555555555555556,1,0,0,0.44287774999975227,a,777,001,2020_Dec_30_1638,untitled,2020.2.10,59.98062625857886,
71,images/76,b,None,None,,,,,,,,,,,,,,,,,,,,,0,14,14,14,,70.56961233299808,None,-0.31333333333333335,0.09555555555555556,1,0,0,0.2087485829979414,a,777,001,2020_Dec_30_1638,untitled,2020.2.10,59.98062625857886,
72,images/77,a,None,None,,,,,,,,,,,,,,,,,,,,,0,15,15,15,,70.7855767919973,None,-0.2822222222222222,-0.01888888888888889,1,0,0,0.8758662499894854,a,777,001,2020_Dec_30_1638,untitled,2020.2.10,59.98062625857886,
73,images/78,b,None,None,,,,,,,,,,,,,,,,,,,,,0,16,16,16,,71.66978620800364,None,-0.2822222222222222,-0.01888888888888889,1,0,0,0.1756530419952469,a,777,001,2020_Dec_30_1638,untitled,2020.2.10,59.98062625857886,
74,images/79,a,None,None,,,,,,,,,,,,,,,,,,,,,0,17,17,17,,71.8519557499967,None,-0.2833333333333333,-0.01888888888888889,1,0,0,3.310978041990893,a,777,001,2020_Dec_30_1638,untitled,2020.2.10,59.98062625857886,
75,images/80,b,None,None,,,,,,,,,,,,,,,,,,,,,0,18,18,18,,75.17126075000851,None,-0.2833333333333333,-0.01888888888888889,1,0,0,0.2072876250022091,a,777,001,2020_Dec_30_1638,untitled,2020.2.10,59.98062625857886,
76,images/81,a,None,None,,,,,,,,,,,,,,,,,,,,,0,19,19,19,,75.38643845800834,None,-0.2833333333333333,-0.01888888888888889,1,0,0,0.17510983400279656,a,777,001,2020_Dec_30_1638,untitled,2020.2.10,59.98062625857886,
77,images/82,d,None,None,,,,,,,,,,,,,,,,,,,,,0,20,20,20,,75.56839258300897,None,-0.2833333333333333,-0.01888888888888889,1,0,0,0.14304658400942571,a,777,001,2020_Dec_30_1638,untitled,2020.2.10,59.98062625857886,
78,images/83,d,None,None,,,,,,,,,,,,,,,,,,,,,0,21,21,21,,75.71745716700389,None,-0.2833333333333333,-0.01888888888888889,1,0,0,0.11048370800563134,a,777,001,2020_Dec_30_1638,untitled,2020.2.10,59.98062625857886,
79,images/84,b,None,None,,,,,,,,,,,,,,,,,,,,,0,22,22,22,,75.83400358300423,None,-0.2833333333333333,-0.01888888888888889,1,0,0,0.12732204100757372,a,777,001,2020_Dec_30_1638,untitled,2020.2.10,59.98062625857886,
80,images/85,c,None,None,,,,,,,,,,,,,,,,,,,,,0,23,23,23,,75.9674362079968,None,-0.2833333333333333,-0.01888888888888889,1,0,0,0.11004870900069363,a,777,001,2020_Dec_30_1638,untitled,2020.2.10,59.98062625857886,
81,images/86,a,None,None,,,,,,,,,,,,,,,,,,,,,0,24,24,24,,76.08389541700308,None,-0.2833333333333333,-0.01888888888888889,1,0,0,0.34452108400000725,a,777,001,2020_Dec_30_1638,untitled,2020.2.10,59.98062625857886,
82,images/87,d,None,None,,,,,,,,,,,,,,,,,,,,,0,25,25,25,,76.43406987500202,None,-0.2833333333333333,-0.01888888888888889,1,0,0,0.2269504580035573,a,777,001,2020_Dec_30_1638,untitled,2020.2.10,59.98062625857886,
83,images/88,d,None,None,,,,,,,,,,,,,,,,,,,,,0,26,26,26,,76.6671447080007,None,-0.2833333333333333,-0.01888888888888889,1,0,0,0.16070037499594036,a,777,001,2020_Dec_30_1638,untitled,2020.2.10,59.98062625857886,
84,images/89,c,None,None,,,,,,,,,,,,,,,,,,,,,0,27,27,27,,76.83425416699902,None,-0.2833333333333333,-0.01888888888888889,1,0,0,0.14452358399285004,a,777,001,2020_Dec_30_1638,untitled,2020.2.10,59.98062625857886,
85,images/90,b,None,None,,,,,,,,,,,,,,,,,,,,,0,28,28,28,,76.98505987500539,None,-0.2833333333333333,-0.01888888888888889,1,0,0,0.19287187499867287,a,777,001,2020_Dec_30_1638,untitled,2020.2.10,59.98062625857886,
86,images/91,c,None,None,,,,,,,,,,,,,,,,,,,,,0,29,29,29,,77.18479858300998,None,-0.2833333333333333,-0.01888888888888889,1,0,0,0.11016837500210386,a,777,001,2020_Dec_30_1638,untitled,2020.2.10,59.98062625857886,
87,images/92,d,None,None,,,,,,,,,,,,,,,,,,,,,0,30,30,30,,77.30141570800333,None,-0.2833333333333333,-0.01888888888888889,1,0,0,0.24323633300082292,a,777,001,2020_Dec_30_1638,untitled,2020.2.10,59.98062625857886,
88,images/93,b,None,None,,,,,,,,,,,,,,,,,,,,,0,31,31,31,,77.55136508301075,None,-0.2833333333333333,-0.01888888888888889,1,0,0,0.3106145409983583,a,777,001,2020_Dec_30_1638,untitled,2020.2.10,59.98062625857886,
89,images/94,a,None,None,,,,,,,,,,,,,,,,,,,,,0,32,32,32,,77.86868108299677,None,-0.2833333333333333,-0.01888888888888889,1,0,0,0.19285320800554473,a,777,001,2020_Dec_30_1638,untitled,2020.2.10,59.98062625857886,
90,images/95,b,None,None,,,,,,,,,,,,,,,,,,,,,0,33,33,33,,78.06764558301074,None,-0.2833333333333333,-0.01888888888888889,1,0,0,0.3108833330043126,a,777,001,2020_Dec_30_1638,untitled,2020.2.10,59.98062625857886,
91,images/96,c,None,None,,,,,,,,,,,,,,,,,,,,,0,34,34,34,,78.38595241701114,None,-0.2833333333333333,-0.01888888888888889,1,0,0,0.14235824999923352,a,777,001,2020_Dec_30_1638,untitled,2020.2.10,59.98062625857886,
92,images/97,c,None,None,,,,,,,,,,,,,,,,,,,,,0,35,35,35,,78.53463824999926,None,-0.2833333333333333,-0.01888888888888889,1,0,0,0.1597311249934137,a,777,001,2020_Dec_30_1638,untitled,2020.2.10,59.98062625857886,
93,images/98,a,None,None,,,,,,,,,,,,,,,,,,,,,0,36,36,36,,78.70069216701086,None,-0.2833333333333333,-0.01888888888888889,1,0,0,0.14433287498832215,a,777,001,2020_Dec_30_1638,untitled,2020.2.10,59.98062625857886,
94,images/99,b,None,None,,,,,,,,,,,,,,,,,,,,,0,37,37,37,,78.85138858300343,None,-0.2833333333333333,-0.01888888888888889,1,0,0,0.19366824999451637,a,777,001,2020_Dec_30_1638,untitled,2020.2.10,59.98062625857886,
95,images/100,d,None,None,,,,,,,,,,,,,,,,,,,,,0,38,38,38,,79.05141979199834,None,-0.2833333333333333,-0.01888888888888889,1,0,0,0.14341541699832305,a,777,001,2020_Dec_30_1638,untitled,2020.2.10,59.98062625857886,
96,images/101,c,None,None,,,,,,,,,,,,,,,,,,,,,0,39,39,39,,79.20113962500182,None,-0.2833333333333333,-0.01888888888888889,1,0,0,0.1596615419985028,a,777,001,2020_Dec_30_1638,untitled,2020.2.10,59.98062625857886,
97,images/102,b,None,None,,,,,,,,,,,,,,,,,,,,,0,40,40,40,,79.36699395799951,None,-0.2833333333333333,-0.01888888888888889,1,0,0,0.4448596669972176,a,777,001,2020_Dec_30_1638,untitled,2020.2.10,59.98062625857886,
98,images/103,c,None,None,,,,,,,,,,,,,,,,,,,,,0,41,41,41,,79.81902224999794,None,-0.2833333333333333,-0.01888888888888889,1,0,0,0.2260369589930633,a,777,001,2020_Dec_30_1638,untitled,2020.2.10,59.98062625857886,
,,,,,,,,,,,,,,,,,,,,,,,,,,,,,,,,,,,,,,,777,001,2020_Dec_30_1638,untitled,2020.2.10,59.98062625857886,
