"","Trial","Inclusion","Inclusion2","ID","style","condition","question","subresp","RT","item","BES_Cognitive","BES_Affective","BES_Total","Lie_Freq","Lie_Ability","Lie_Neg","Lie_Content","Lie_TotalAvg","MAIA1","MAIA2","MAIA3","MAIA4","MAIA5","MAIA6","MAIA7","MAIA8","MAIA_Total","SRP3_IPM","SRP3_CA","SRP3_ELS","SRP3_ASB","SRP3_PRI","SRP3_SEC","SRP3_Total","yoni_affective","yoni_cognitive","yoni_physical","yoni_total","HCT_Confidence","HCT_Accuracy","HCT_Awareness","Gender","Age","handedness","Polyjc","Ethnicity","Religion","Nationality","RaisedinSG"
"1",1,1,1,1,"Direct","TRUTH","Which MRT station is closest to your house?",0.287037037037037,5.49720517336391,19,37,36,73,-0.502271259222083,-2.93362685406997,1.27184309181154,0.631618623678662,-0.383109099450463,2.75,2.5,1.8,2.14285714285714,2.6,2,3,3.33333333333333,20.1261904761905,43,40,39,20,83,59,142,45,31,14,90,0.360740740740741,0.977426526485375,-0.292638947933465,"Female",20,"Right handed","Junior College","Chinese","Not religious","Singaporean","Yes"
"2",2,1,1,1,"Direct","TRUTH","What was the last country you visited?",0.355555555555556,4.73554113507271,18,37,36,73,-0.502271259222083,-2.93362685406997,1.27184309181154,0.631618623678662,-0.383109099450463,2.75,2.5,1.8,2.14285714285714,2.6,2,3,3.33333333333333,20.1261904761905,43,40,39,20,83,59,142,45,31,14,90,0.360740740740741,0.977426526485375,-0.292638947933465,"Female",20,"Right handed","Junior College","Chinese","Not religious","Singaporean","Yes"
"3",3,1,1,1,"Indirect","LIE","Is your favourite flavour Vanilla?",0.301851851851852,4.49967951886356,14,37,36,73,-0.502271259222083,-2.93362685406997,1.27184309181154,0.631618623678662,-0.383109099450463,2.75,2.5,1.8,2.14285714285714,2.6,2,3,3.33333333333333,20.1261904761905,43,40,39,20,83,59,142,45,31,14,90,0.360740740740741,0.977426526485375,-0.292638947933465,"Female",20,"Right handed","Junior College","Chinese","Not religious","Singaporean","Yes"
"4",4,1,1,1,"Indirect","LIE","Are you from Nanyang Business School in NTU?",0.315740740740741,3.76635416271165,21,37,36,73,-0.502271259222083,-2.93362685406997,1.27184309181154,0.631618623678662,-0.383109099450463,2.75,2.5,1.8,2.14285714285714,2.6,2,3,3.33333333333333,20.1261904761905,43,40,39,20,83,59,142,45,31,14,90,0.360740740740741,0.977426526485375,-0.292638947933465,"Female",20,"Right handed","Junior College","Chinese","Not religious","Singaporean","Yes"
"5",5,1,1,1,"Indirect","LIE","Did you celebrate your 21st birthday at MBS?",0.269444444444444,2.2662168595707,17,37,36,73,-0.502271259222083,-2.93362685406997,1.27184309181154,0.631618623678662,-0.383109099450463,2.75,2.5,1.8,2.14285714285714,2.6,2,3,3.33333333333333,20.1261904761905,43,40,39,20,83,59,142,45,31,14,90,0.360740740740741,0.977426526485375,-0.292638947933465,"Female",20,"Right handed","Junior College","Chinese","Not religious","Singaporean","Yes"
"6",6,1,1,1,"Direct","TRUTH","Which floor of the building is your house on?",0.315740740740741,2.5027332326863,20,37,36,73,-0.502271259222083,-2.93362685406997,1.27184309181154,0.631618623678662,-0.383109099450463,2.75,2.5,1.8,2.14285714285714,2.6,2,3,3.33333333333333,20.1261904761905,43,40,39,20,83,59,142,45,31,14,90,0.360740740740741,0.977426526485375,-0.292638947933465,"Female",20,"Right handed","Junior College","Chinese","Not religious","Singaporean","Yes"
"7",7,1,1,1,"Direct","LIE","How often do you smoke?",0.321296296296296,2.48267509054858,26,37,36,73,-0.502271259222083,-2.93362685406997,1.27184309181154,0.631618623678662,-0.383109099450463,2.75,2.5,1.8,2.14285714285714,2.6,2,3,3.33333333333333,20.1261904761905,43,40,39,20,83,59,142,45,31,14,90,0.360740740740741,0.977426526485375,-0.292638947933465,"Female",20,"Right handed","Junior College","Chinese","Not religious","Singaporean","Yes"
"8",8,1,1,1,"Indirect","LIE","Are you from Temasek Primary School?",0.333333333333333,2.20024490018841,1,37,36,73,-0.502271259222083,-2.93362685406997,1.27184309181154,0.631618623678662,-0.383109099450463,2.75,2.5,1.8,2.14285714285714,2.6,2,3,3.33333333333333,20.1261904761905,43,40,39,20,83,59,142,45,31,14,90,0.360740740740741,0.977426526485375,-0.292638947933465,"Female",20,"Right handed","Junior College","Chinese","Not religious","Singaporean","Yes"
"9",9,1,1,1,"Direct","TRUTH","Which secondary school did you attend?",0.268518518518518,2.95006749674212,2,37,36,73,-0.502271259222083,-2.93362685406997,1.27184309181154,0.631618623678662,-0.383109099450463,2.75,2.5,1.8,2.14285714285714,2.6,2,3,3.33333333333333,20.1261904761905,43,40,39,20,83,59,142,45,31,14,90,0.360740740740741,0.977426526485375,-0.292638947933465,"Female",20,"Right handed","Junior College","Chinese","Not religious","Singaporean","Yes"
"10",10,1,1,1,"Indirect","TRUTH","Are you studying Linguistics and Multilingual Studies course in NTU?",0.5,2.40049268770963,23,37,36,73,-0.502271259222083,-2.93362685406997,1.27184309181154,0.631618623678662,-0.383109099450463,2.75,2.5,1.8,2.14285714285714,2.6,2,3,3.33333333333333,20.1261904761905,43,40,39,20,83,59,142,45,31,14,90,0.360740740740741,0.977426526485375,-0.292638947933465,"Female",20,"Right handed","Junior College","Chinese","Not religious","Singaporean","Yes"
"11",11,0,0,1,"Indirect","TRUTH","Do you drink alcohol socially?",0.507407407407407,2.53554934763815,27,37,36,73,-0.502271259222083,-2.93362685406997,1.27184309181154,0.631618623678662,-0.383109099450463,2.75,2.5,1.8,2.14285714285714,2.6,2,3,3.33333333333333,20.1261904761905,43,40,39,20,83,59,142,45,31,14,90,0.360740740740741,0.977426526485375,-0.292638947933465,"Female",20,"Right handed","Junior College","Chinese","Not religious","Singaporean","Yes"
"12",12,1,1,1,"Indirect","LIE","Do you use a Acer laptop?",0.413888888888889,2.64966373541392,30,37,36,73,-0.502271259222083,-2.93362685406997,1.27184309181154,0.631618623678662,-0.383109099450463,2.75,2.5,1.8,2.14285714285714,2.6,2,3,3.33333333333333,20.1261904761905,43,40,39,20,83,59,142,45,31,14,90,0.360740740740741,0.977426526485375,-0.292638947933465,"Female",20,"Right handed","Junior College","Chinese","Not religious","Singaporean","Yes"
"13",13,1,1,1,"Indirect","TRUTH","Do you have 2 siblings?",0.522222222222222,2.20097023341805,16,37,36,73,-0.502271259222083,-2.93362685406997,1.27184309181154,0.631618623678662,-0.383109099450463,2.75,2.5,1.8,2.14285714285714,2.6,2,3,3.33333333333333,20.1261904761905,43,40,39,20,83,59,142,45,31,14,90,0.360740740740741,0.977426526485375,-0.292638947933465,"Female",20,"Right handed","Junior College","Chinese","Not religious","Singaporean","Yes"
"14",14,1,1,1,"Direct","LIE","Which secondary school did you attend?",0.334259259259259,2.96686725341715,2,37,36,73,-0.502271259222083,-2.93362685406997,1.27184309181154,0.631618623678662,-0.383109099450463,2.75,2.5,1.8,2.14285714285714,2.6,2,3,3.33333333333333,20.1261904761905,43,40,39,20,83,59,142,45,31,14,90,0.360740740740741,0.977426526485375,-0.292638947933465,"Female",20,"Right handed","Junior College","Chinese","Not religious","Singaporean","Yes"
"15",15,1,1,1,"Direct","TRUTH","What is your favourite sport?",0.516666666666667,2.4176247951109,7,37,36,73,-0.502271259222083,-2.93362685406997,1.27184309181154,0.631618623678662,-0.383109099450463,2.75,2.5,1.8,2.14285714285714,2.6,2,3,3.33333333333333,20.1261904761905,43,40,39,20,83,59,142,45,31,14,90,0.360740740740741,0.977426526485375,-0.292638947933465,"Female",20,"Right handed","Junior College","Chinese","Not religious","Singaporean","Yes"
"16",16,1,1,1,"Direct","LIE","What course are you studying?",0.371296296296296,2.71609797037672,23,37,36,73,-0.502271259222083,-2.93362685406997,1.27184309181154,0.631618623678662,-0.383109099450463,2.75,2.5,1.8,2.14285714285714,2.6,2,3,3.33333333333333,20.1261904761905,43,40,39,20,83,59,142,45,31,14,90,0.360740740740741,0.977426526485375,-0.292638947933465,"Female",20,"Right handed","Junior College","Chinese","Not religious","Singaporean","Yes"
"17",17,1,0,1,"Indirect","TRUTH","Do you smoke regularly?",0.491666666666667,2.86677191103809,26,37,36,73,-0.502271259222083,-2.93362685406997,1.27184309181154,0.631618623678662,-0.383109099450463,2.75,2.5,1.8,2.14285714285714,2.6,2,3,3.33333333333333,20.1261904761905,43,40,39,20,83,59,142,45,31,14,90,0.360740740740741,0.977426526485375,-0.292638947933465,"Female",20,"Right handed","Junior College","Chinese","Not religious","Singaporean","Yes"
"18",18,1,0,1,"Indirect","TRUTH","Do you use a Lenovo laptop?",0.352777777777778,3.08346304425504,30,37,36,73,-0.502271259222083,-2.93362685406997,1.27184309181154,0.631618623678662,-0.383109099450463,2.75,2.5,1.8,2.14285714285714,2.6,2,3,3.33333333333333,20.1261904761905,43,40,39,20,83,59,142,45,31,14,90,0.360740740740741,0.977426526485375,-0.292638947933465,"Female",20,"Right handed","Junior College","Chinese","Not religious","Singaporean","Yes"
"19",19,1,1,1,"Direct","TRUTH","What brand of handphone do you use?",0.52962962962963,5.0171763781691,29,37,36,73,-0.502271259222083,-2.93362685406997,1.27184309181154,0.631618623678662,-0.383109099450463,2.75,2.5,1.8,2.14285714285714,2.6,2,3,3.33333333333333,20.1261904761905,43,40,39,20,83,59,142,45,31,14,90,0.360740740740741,0.977426526485375,-0.292638947933465,"Female",20,"Right handed","Junior College","Chinese","Not religious","Singaporean","Yes"
"20",20,1,1,1,"Indirect","TRUTH","Are you in your 1st year in NTU?",0.50462962962963,2.30002906464506,22,37,36,73,-0.502271259222083,-2.93362685406997,1.27184309181154,0.631618623678662,-0.383109099450463,2.75,2.5,1.8,2.14285714285714,2.6,2,3,3.33333333333333,20.1261904761905,43,40,39,20,83,59,142,45,31,14,90,0.360740740740741,0.977426526485375,-0.292638947933465,"Female",20,"Right handed","Junior College","Chinese","Not religious","Singaporean","Yes"
"21",21,1,1,1,"Indirect","LIE","Is your favourite sport Hockey?",0.367592592592593,3.23346137604676,7,37,36,73,-0.502271259222083,-2.93362685406997,1.27184309181154,0.631618623678662,-0.383109099450463,2.75,2.5,1.8,2.14285714285714,2.6,2,3,3.33333333333333,20.1261904761905,43,40,39,20,83,59,142,45,31,14,90,0.360740740740741,0.977426526485375,-0.292638947933465,"Female",20,"Right handed","Junior College","Chinese","Not religious","Singaporean","Yes"
"22",22,1,1,1,"Direct","TRUTH","What is your favourite flavour?(E.g. chocolate, vanilla, milktea; it can be a complicated flavour)",0.366666666666667,2.73339978209697,14,37,36,73,-0.502271259222083,-2.93362685406997,1.27184309181154,0.631618623678662,-0.383109099450463,2.75,2.5,1.8,2.14285714285714,2.6,2,3,3.33333333333333,20.1261904761905,43,40,39,20,83,59,142,45,31,14,90,0.360740740740741,0.977426526485375,-0.292638947933465,"Female",20,"Right handed","Junior College","Chinese","Not religious","Singaporean","Yes"
"23",23,1,1,1,"Indirect","LIE","Is your house on the 3rd floor of the building?",0.332407407407407,2.54929314507172,20,37,36,73,-0.502271259222083,-2.93362685406997,1.27184309181154,0.631618623678662,-0.383109099450463,2.75,2.5,1.8,2.14285714285714,2.6,2,3,3.33333333333333,20.1261904761905,43,40,39,20,83,59,142,45,31,14,90,0.360740740740741,0.977426526485375,-0.292638947933465,"Female",20,"Right handed","Junior College","Chinese","Not religious","Singaporean","Yes"
"24",24,1,1,1,"Direct","LIE","Which MRT station is closest to your house?",0.362037037037037,2.43267104844563,19,37,36,73,-0.502271259222083,-2.93362685406997,1.27184309181154,0.631618623678662,-0.383109099450463,2.75,2.5,1.8,2.14285714285714,2.6,2,3,3.33333333333333,20.1261904761905,43,40,39,20,83,59,142,45,31,14,90,0.360740740740741,0.977426526485375,-0.292638947933465,"Female",20,"Right handed","Junior College","Chinese","Not religious","Singaporean","Yes"
"25",25,1,1,1,"Indirect","LIE","Do you hate eating Eggplant the most?",0.358333333333333,3.93473893776536,10,37,36,73,-0.502271259222083,-2.93362685406997,1.27184309181154,0.631618623678662,-0.383109099450463,2.75,2.5,1.8,2.14285714285714,2.6,2,3,3.33333333333333,20.1261904761905,43,40,39,20,83,59,142,45,31,14,90,0.360740740740741,0.977426526485375,-0.292638947933465,"Female",20,"Right handed","Junior College","Chinese","Not religious","Singaporean","Yes"
"26",26,1,1,1,"Indirect","LIE","Are you in your 3rd year in NTU?",0.359259259259259,3.33273514464963,22,37,36,73,-0.502271259222083,-2.93362685406997,1.27184309181154,0.631618623678662,-0.383109099450463,2.75,2.5,1.8,2.14285714285714,2.6,2,3,3.33333333333333,20.1261904761905,43,40,39,20,83,59,142,45,31,14,90,0.360740740740741,0.977426526485375,-0.292638947933465,"Female",20,"Right handed","Junior College","Chinese","Not religious","Singaporean","Yes"
"27",27,1,1,1,"Direct","TRUTH","What food do you hate the most?",0.388888888888889,2.58314801682718,10,37,36,73,-0.502271259222083,-2.93362685406997,1.27184309181154,0.631618623678662,-0.383109099450463,2.75,2.5,1.8,2.14285714285714,2.6,2,3,3.33333333333333,20.1261904761905,43,40,39,20,83,59,142,45,31,14,90,0.360740740740741,0.977426526485375,-0.292638947933465,"Female",20,"Right handed","Junior College","Chinese","Not religious","Singaporean","Yes"
"28",28,1,0,1,"Indirect","TRUTH","Were you in the Volleyball CCA during secondary school?",0.398148148148148,2.55072584643494,6,37,36,73,-0.502271259222083,-2.93362685406997,1.27184309181154,0.631618623678662,-0.383109099450463,2.75,2.5,1.8,2.14285714285714,2.6,2,3,3.33333333333333,20.1261904761905,43,40,39,20,83,59,142,45,31,14,90,0.360740740740741,0.977426526485375,-0.292638947933465,"Female",20,"Right handed","Junior College","Chinese","Not religious","Singaporean","Yes"
"29",29,1,0,1,"Direct","LIE","How frequently do you drink alcohol?",0.337037037037037,2.98291697516106,27,37,36,73,-0.502271259222083,-2.93362685406997,1.27184309181154,0.631618623678662,-0.383109099450463,2.75,2.5,1.8,2.14285714285714,2.6,2,3,3.33333333333333,20.1261904761905,43,40,39,20,83,59,142,45,31,14,90,0.360740740740741,0.977426526485375,-0.292638947933465,"Female",20,"Right handed","Junior College","Chinese","Not religious","Singaporean","Yes"
"30",30,1,1,1,"Indirect","LIE","Are you from Hwa Chong Institution (College)?",0.425,2.7493221454788,15,37,36,73,-0.502271259222083,-2.93362685406997,1.27184309181154,0.631618623678662,-0.383109099450463,2.75,2.5,1.8,2.14285714285714,2.6,2,3,3.33333333333333,20.1261904761905,43,40,39,20,83,59,142,45,31,14,90,0.360740740740741,0.977426526485375,-0.292638947933465,"Female",20,"Right handed","Junior College","Chinese","Not religious","Singaporean","Yes"
"31",31,1,1,1,"Direct","TRUTH","Where did you celebrate your 21st birthday?",0.385185185185185,3.96621634624898,17,37,36,73,-0.502271259222083,-2.93362685406997,1.27184309181154,0.631618623678662,-0.383109099450463,2.75,2.5,1.8,2.14285714285714,2.6,2,3,3.33333333333333,20.1261904761905,43,40,39,20,83,59,142,45,31,14,90,0.360740740740741,0.977426526485375,-0.292638947933465,"Female",20,"Right handed","Junior College","Chinese","Not religious","Singaporean","Yes"
"32",32,1,1,1,"Indirect","TRUTH","Are you from the School of Humanities in NTU?",0.385185185185185,2.00159534811974,21,37,36,73,-0.502271259222083,-2.93362685406997,1.27184309181154,0.631618623678662,-0.383109099450463,2.75,2.5,1.8,2.14285714285714,2.6,2,3,3.33333333333333,20.1261904761905,43,40,39,20,83,59,142,45,31,14,90,0.360740740740741,0.977426526485375,-0.292638947933465,"Female",20,"Right handed","Junior College","Chinese","Not religious","Singaporean","Yes"
"33",33,1,1,1,"Direct","LIE","What religion do you practice?",0.492592592592593,1.98174701048993,28,37,36,73,-0.502271259222083,-2.93362685406997,1.27184309181154,0.631618623678662,-0.383109099450463,2.75,2.5,1.8,2.14285714285714,2.6,2,3,3.33333333333333,20.1261904761905,43,40,39,20,83,59,142,45,31,14,90,0.360740740740741,0.977426526485375,-0.292638947933465,"Female",20,"Right handed","Junior College","Chinese","Not religious","Singaporean","Yes"
"34",34,1,1,1,"Direct","TRUTH","What religion do you practice?",0.526851851851852,1.89867855259217,28,37,36,73,-0.502271259222083,-2.93362685406997,1.27184309181154,0.631618623678662,-0.383109099450463,2.75,2.5,1.8,2.14285714285714,2.6,2,3,3.33333333333333,20.1261904761905,43,40,39,20,83,59,142,45,31,14,90,0.360740740740741,0.977426526485375,-0.292638947933465,"Female",20,"Right handed","Junior College","Chinese","Not religious","Singaporean","Yes"
"35",35,1,1,1,"Indirect","TRUTH","Are you from Tao Nan Primary School?",0.490740740740741,2.31585999950767,1,37,36,73,-0.502271259222083,-2.93362685406997,1.27184309181154,0.631618623678662,-0.383109099450463,2.75,2.5,1.8,2.14285714285714,2.6,2,3,3.33333333333333,20.1261904761905,43,40,39,20,83,59,142,45,31,14,90,0.360740740740741,0.977426526485375,-0.292638947933465,"Female",20,"Right handed","Junior College","Chinese","Not religious","Singaporean","Yes"
"36",36,1,1,1,"Indirect","LIE","Were you in the Infocomm Club CCA during secondary school?",0.332407407407407,2.7001419228036,6,37,36,73,-0.502271259222083,-2.93362685406997,1.27184309181154,0.631618623678662,-0.383109099450463,2.75,2.5,1.8,2.14285714285714,2.6,2,3,3.33333333333333,20.1261904761905,43,40,39,20,83,59,142,45,31,14,90,0.360740740740741,0.977426526485375,-0.292638947933465,"Female",20,"Right handed","Junior College","Chinese","Not religious","Singaporean","Yes"
"37",37,1,1,1,"Indirect","LIE","Was the last country you visited Malaysia?",0.488888888888889,2.03359470132273,18,37,36,73,-0.502271259222083,-2.93362685406997,1.27184309181154,0.631618623678662,-0.383109099450463,2.75,2.5,1.8,2.14285714285714,2.6,2,3,3.33333333333333,20.1261904761905,43,40,39,20,83,59,142,45,31,14,90,0.360740740740741,0.977426526485375,-0.292638947933465,"Female",20,"Right handed","Junior College","Chinese","Not religious","Singaporean","Yes"
"38",38,1,1,1,"Indirect","LIE","Do you have 4 siblings?",0.457407407407407,5.1337663945742,16,37,36,73,-0.502271259222083,-2.93362685406997,1.27184309181154,0.631618623678662,-0.383109099450463,2.75,2.5,1.8,2.14285714285714,2.6,2,3,3.33333333333333,20.1261904761905,43,40,39,20,83,59,142,45,31,14,90,0.360740740740741,0.977426526485375,-0.292638947933465,"Female",20,"Right handed","Junior College","Chinese","Not religious","Singaporean","Yes"
"39",39,1,1,1,"Direct","LIE","What brand of handphone do you use?",0.35462962962963,3.13406602363102,29,37,36,73,-0.502271259222083,-2.93362685406997,1.27184309181154,0.631618623678662,-0.383109099450463,2.75,2.5,1.8,2.14285714285714,2.6,2,3,3.33333333333333,20.1261904761905,43,40,39,20,83,59,142,45,31,14,90,0.360740740740741,0.977426526485375,-0.292638947933465,"Female",20,"Right handed","Junior College","Chinese","Not religious","Singaporean","Yes"
"40",40,1,1,1,"Indirect","TRUTH","Are you from Singapore Polytechnic?",0.517592592592593,2.6830303465249,15,37,36,73,-0.502271259222083,-2.93362685406997,1.27184309181154,0.631618623678662,-0.383109099450463,2.75,2.5,1.8,2.14285714285714,2.6,2,3,3.33333333333333,20.1261904761905,43,40,39,20,83,59,142,45,31,14,90,0.360740740740741,0.977426526485375,-0.292638947933465,"Female",20,"Right handed","Junior College","Chinese","Not religious","Singaporean","Yes"
"41",41,1,1,1,"Direct","LIE","What brand of laptop do you mainly use?",0.49537037037037,3.00123989954591,30,37,36,73,-0.502271259222083,-2.93362685406997,1.27184309181154,0.631618623678662,-0.383109099450463,2.75,2.5,1.8,2.14285714285714,2.6,2,3,3.33333333333333,20.1261904761905,43,40,39,20,83,59,142,45,31,14,90,0.360740740740741,0.977426526485375,-0.292638947933465,"Female",20,"Right handed","Junior College","Chinese","Not religious","Singaporean","Yes"
"42",42,1,1,1,"Indirect","TRUTH","Was the last country you visited Australia?",0.323148148148148,2.03243179433048,18,37,36,73,-0.502271259222083,-2.93362685406997,1.27184309181154,0.631618623678662,-0.383109099450463,2.75,2.5,1.8,2.14285714285714,2.6,2,3,3.33333333333333,20.1261904761905,43,40,39,20,83,59,142,45,31,14,90,0.360740740740741,0.977426526485375,-0.292638947933465,"Female",20,"Right handed","Junior College","Chinese","Not religious","Singaporean","Yes"
"43",43,1,1,1,"Direct","LIE","What is your favourite sport?",0.349074074074074,2.59941427980084,7,37,36,73,-0.502271259222083,-2.93362685406997,1.27184309181154,0.631618623678662,-0.383109099450463,2.75,2.5,1.8,2.14285714285714,2.6,2,3,3.33333333333333,20.1261904761905,43,40,39,20,83,59,142,45,31,14,90,0.360740740740741,0.977426526485375,-0.292638947933465,"Female",20,"Right handed","Junior College","Chinese","Not religious","Singaporean","Yes"
"44",44,1,1,1,"Direct","TRUTH","Which primary school are you from?",0.498148148148148,2.21706615062431,1,37,36,73,-0.502271259222083,-2.93362685406997,1.27184309181154,0.631618623678662,-0.383109099450463,2.75,2.5,1.8,2.14285714285714,2.6,2,3,3.33333333333333,20.1261904761905,43,40,39,20,83,59,142,45,31,14,90,0.360740740740741,0.977426526485375,-0.292638947933465,"Female",20,"Right handed","Junior College","Chinese","Not religious","Singaporean","Yes"
"45",45,1,1,1,"Direct","TRUTH","What course are you studying?",0.486111111111111,2.40013788070064,23,37,36,73,-0.502271259222083,-2.93362685406997,1.27184309181154,0.631618623678662,-0.383109099450463,2.75,2.5,1.8,2.14285714285714,2.6,2,3,3.33333333333333,20.1261904761905,43,40,39,20,83,59,142,45,31,14,90,0.360740740740741,0.977426526485375,-0.292638947933465,"Female",20,"Right handed","Junior College","Chinese","Not religious","Singaporean","Yes"
"46",46,1,1,1,"Indirect","TRUTH","Is your favourite sport Kayaking?",0.381481481481481,7.36677736474667,7,37,36,73,-0.502271259222083,-2.93362685406997,1.27184309181154,0.631618623678662,-0.383109099450463,2.75,2.5,1.8,2.14285714285714,2.6,2,3,3.33333333333333,20.1261904761905,43,40,39,20,83,59,142,45,31,14,90,0.360740740740741,0.977426526485375,-0.292638947933465,"Female",20,"Right handed","Junior College","Chinese","Not religious","Singaporean","Yes"
"47",47,1,1,1,"Indirect","TRUTH","Are you from Serangoon Secondary School?",0.689814814814815,8.18235570006073,2,37,36,73,-0.502271259222083,-2.93362685406997,1.27184309181154,0.631618623678662,-0.383109099450463,2.75,2.5,1.8,2.14285714285714,2.6,2,3,3.33333333333333,20.1261904761905,43,40,39,20,83,59,142,45,31,14,90,0.360740740740741,0.977426526485375,-0.292638947933465,"Female",20,"Right handed","Junior College","Chinese","Not religious","Singaporean","Yes"
"48",48,1,1,1,"Indirect","LIE","Do you drink alcohol rarely?",0.412037037037037,3.76801912498195,27,37,36,73,-0.502271259222083,-2.93362685406997,1.27184309181154,0.631618623678662,-0.383109099450463,2.75,2.5,1.8,2.14285714285714,2.6,2,3,3.33333333333333,20.1261904761905,43,40,39,20,83,59,142,45,31,14,90,0.360740740740741,0.977426526485375,-0.292638947933465,"Female",20,"Right handed","Junior College","Chinese","Not religious","Singaporean","Yes"
"49",49,1,1,1,"Indirect","LIE","Are you studying Sociology course in NTU?",0.337037037037037,2.55196029238869,23,37,36,73,-0.502271259222083,-2.93362685406997,1.27184309181154,0.631618623678662,-0.383109099450463,2.75,2.5,1.8,2.14285714285714,2.6,2,3,3.33333333333333,20.1261904761905,43,40,39,20,83,59,142,45,31,14,90,0.360740740740741,0.977426526485375,-0.292638947933465,"Female",20,"Right handed","Junior College","Chinese","Not religious","Singaporean","Yes"
"50",50,1,1,1,"Indirect","LIE","Is the Canberra station the closest MRT to your house?",0.37037037037037,1.90010932926089,19,37,36,73,-0.502271259222083,-2.93362685406997,1.27184309181154,0.631618623678662,-0.383109099450463,2.75,2.5,1.8,2.14285714285714,2.6,2,3,3.33333333333333,20.1261904761905,43,40,39,20,83,59,142,45,31,14,90,0.360740740740741,0.977426526485375,-0.292638947933465,"Female",20,"Right handed","Junior College","Chinese","Not religious","Singaporean","Yes"
"51",51,1,1,1,"Direct","TRUTH","What brand of laptop do you mainly use?",0.519444444444444,1.43095379555598,30,37,36,73,-0.502271259222083,-2.93362685406997,1.27184309181154,0.631618623678662,-0.383109099450463,2.75,2.5,1.8,2.14285714285714,2.6,2,3,3.33333333333333,20.1261904761905,43,40,39,20,83,59,142,45,31,14,90,0.360740740740741,0.977426526485375,-0.292638947933465,"Female",20,"Right handed","Junior College","Chinese","Not religious","Singaporean","Yes"
"52",52,1,1,1,"Direct","TRUTH","Which year in NTU are you currently in? (Eg. 1, 2, 3, 4)",0.503703703703704,2.25247306225356,22,37,36,73,-0.502271259222083,-2.93362685406997,1.27184309181154,0.631618623678662,-0.383109099450463,2.75,2.5,1.8,2.14285714285714,2.6,2,3,3.33333333333333,20.1261904761905,43,40,39,20,83,59,142,45,31,14,90,0.360740740740741,0.977426526485375,-0.292638947933465,"Female",20,"Right handed","Junior College","Chinese","Not religious","Singaporean","Yes"
"53",53,0,0,1,"Direct","LIE","Which school in NTU are you from? (Eg. NBS, SSS, SOH)",0.330555555555556,2.38344687584322,21,37,36,73,-0.502271259222083,-2.93362685406997,1.27184309181154,0.631618623678662,-0.383109099450463,2.75,2.5,1.8,2.14285714285714,2.6,2,3,3.33333333333333,20.1261904761905,43,40,39,20,83,59,142,45,31,14,90,0.360740740740741,0.977426526485375,-0.292638947933465,"Female",20,"Right handed","Junior College","Chinese","Not religious","Singaporean","Yes"
"54",54,1,1,1,"Direct","LIE","What CCA (Co-curricular Activity) did you join in secondary school?",0.5,2.56784319714643,6,37,36,73,-0.502271259222083,-2.93362685406997,1.27184309181154,0.631618623678662,-0.383109099450463,2.75,2.5,1.8,2.14285714285714,2.6,2,3,3.33333333333333,20.1261904761905,43,40,39,20,83,59,142,45,31,14,90,0.360740740740741,0.977426526485375,-0.292638947933465,"Female",20,"Right handed","Junior College","Chinese","Not religious","Singaporean","Yes"
"55",55,1,1,1,"Direct","TRUTH","How often do you smoke?",0.839814814814815,6.18267938925419,26,37,36,73,-0.502271259222083,-2.93362685406997,1.27184309181154,0.631618623678662,-0.383109099450463,2.75,2.5,1.8,2.14285714285714,2.6,2,3,3.33333333333333,20.1261904761905,43,40,39,20,83,59,142,45,31,14,90,0.360740740740741,0.977426526485375,-0.292638947933465,"Female",20,"Right handed","Junior College","Chinese","Not religious","Singaporean","Yes"
"56",56,1,1,1,"Indirect","TRUTH","Do you hate eating cheese the most?",0.769444444444444,4.333312908886,10,37,36,73,-0.502271259222083,-2.93362685406997,1.27184309181154,0.631618623678662,-0.383109099450463,2.75,2.5,1.8,2.14285714285714,2.6,2,3,3.33333333333333,20.1261904761905,43,40,39,20,83,59,142,45,31,14,90,0.360740740740741,0.977426526485375,-0.292638947933465,"Female",20,"Right handed","Junior College","Chinese","Not religious","Singaporean","Yes"
"57",57,1,1,1,"Direct","LIE","What is your favourite flavour?(E.g. chocolate, vanilla, milktea; it can be a complicated flavour)",0.518518518518518,2.63359284074977,14,37,36,73,-0.502271259222083,-2.93362685406997,1.27184309181154,0.631618623678662,-0.383109099450463,2.75,2.5,1.8,2.14285714285714,2.6,2,3,3.33333333333333,20.1261904761905,43,40,39,20,83,59,142,45,31,14,90,0.360740740740741,0.977426526485375,-0.292638947933465,"Female",20,"Right handed","Junior College","Chinese","Not religious","Singaporean","Yes"
"58",58,1,1,1,"Indirect","LIE","Is your religion Catholicism?",0.400925925925926,2.70035750162788,28,37,36,73,-0.502271259222083,-2.93362685406997,1.27184309181154,0.631618623678662,-0.383109099450463,2.75,2.5,1.8,2.14285714285714,2.6,2,3,3.33333333333333,20.1261904761905,43,40,39,20,83,59,142,45,31,14,90,0.360740740740741,0.977426526485375,-0.292638947933465,"Female",20,"Right handed","Junior College","Chinese","Not religious","Singaporean","Yes"
"59",59,1,1,1,"Direct","TRUTH","How many siblings do you have? (Eg. 0, 1, 2, 3)",0.790740740740741,3.18628841114696,16,37,36,73,-0.502271259222083,-2.93362685406997,1.27184309181154,0.631618623678662,-0.383109099450463,2.75,2.5,1.8,2.14285714285714,2.6,2,3,3.33333333333333,20.1261904761905,43,40,39,20,83,59,142,45,31,14,90,0.360740740740741,0.977426526485375,-0.292638947933465,"Female",20,"Right handed","Junior College","Chinese","Not religious","Singaporean","Yes"
"60",60,1,1,1,"Direct","LIE","How many siblings do you have? (Eg. 0, 1, 2, 3)",0.366666666666667,2.91610643954482,16,37,36,73,-0.502271259222083,-2.93362685406997,1.27184309181154,0.631618623678662,-0.383109099450463,2.75,2.5,1.8,2.14285714285714,2.6,2,3,3.33333333333333,20.1261904761905,43,40,39,20,83,59,142,45,31,14,90,0.360740740740741,0.977426526485375,-0.292638947933465,"Female",20,"Right handed","Junior College","Chinese","Not religious","Singaporean","Yes"
"61",61,1,1,1,"Indirect","LIE","Do you not smoke at all?",0.353703703703704,3.36706672806758,26,37,36,73,-0.502271259222083,-2.93362685406997,1.27184309181154,0.631618623678662,-0.383109099450463,2.75,2.5,1.8,2.14285714285714,2.6,2,3,3.33333333333333,20.1261904761905,43,40,39,20,83,59,142,45,31,14,90,0.360740740740741,0.977426526485375,-0.292638947933465,"Female",20,"Right handed","Junior College","Chinese","Not religious","Singaporean","Yes"
"62",62,1,1,1,"Direct","TRUTH","What CCA (Co-curricular Activity) did you join in secondary school?",0.54537037037037,2.66814096551389,6,37,36,73,-0.502271259222083,-2.93362685406997,1.27184309181154,0.631618623678662,-0.383109099450463,2.75,2.5,1.8,2.14285714285714,2.6,2,3,3.33333333333333,20.1261904761905,43,40,39,20,83,59,142,45,31,14,90,0.360740740740741,0.977426526485375,-0.292638947933465,"Female",20,"Right handed","Junior College","Chinese","Not religious","Singaporean","Yes"
"63",63,1,1,1,"Direct","LIE","Which year in NTU are you currently in? (Eg. 1, 2, 3, 4)",0.477777777777778,1.78118162904866,22,37,36,73,-0.502271259222083,-2.93362685406997,1.27184309181154,0.631618623678662,-0.383109099450463,2.75,2.5,1.8,2.14285714285714,2.6,2,3,3.33333333333333,20.1261904761905,43,40,39,20,83,59,142,45,31,14,90,0.360740740740741,0.977426526485375,-0.292638947933465,"Female",20,"Right handed","Junior College","Chinese","Not religious","Singaporean","Yes"
"64",64,1,1,1,"Direct","LIE","Which floor of the building is your house on?",0.356481481481482,2.98295707534999,20,37,36,73,-0.502271259222083,-2.93362685406997,1.27184309181154,0.631618623678662,-0.383109099450463,2.75,2.5,1.8,2.14285714285714,2.6,2,3,3.33333333333333,20.1261904761905,43,40,39,20,83,59,142,45,31,14,90,0.360740740740741,0.977426526485375,-0.292638947933465,"Female",20,"Right handed","Junior College","Chinese","Not religious","Singaporean","Yes"
"65",65,1,1,1,"Indirect","LIE","Do you use a Samsung phone?",0.302777777777778,2.56633863598108,29,37,36,73,-0.502271259222083,-2.93362685406997,1.27184309181154,0.631618623678662,-0.383109099450463,2.75,2.5,1.8,2.14285714285714,2.6,2,3,3.33333333333333,20.1261904761905,43,40,39,20,83,59,142,45,31,14,90,0.360740740740741,0.977426526485375,-0.292638947933465,"Female",20,"Right handed","Junior College","Chinese","Not religious","Singaporean","Yes"
"66",66,0,0,1,"Direct","TRUTH","How frequently do you drink alcohol?",0.550925925925926,3.26617387204897,27,37,36,73,-0.502271259222083,-2.93362685406997,1.27184309181154,0.631618623678662,-0.383109099450463,2.75,2.5,1.8,2.14285714285714,2.6,2,3,3.33333333333333,20.1261904761905,43,40,39,20,83,59,142,45,31,14,90,0.360740740740741,0.977426526485375,-0.292638947933465,"Female",20,"Right handed","Junior College","Chinese","Not religious","Singaporean","Yes"
"67",67,1,1,1,"Indirect","TRUTH","Is your house on the 12th floor of the building?",0.656481481481481,2.43408610578626,20,37,36,73,-0.502271259222083,-2.93362685406997,1.27184309181154,0.631618623678662,-0.383109099450463,2.75,2.5,1.8,2.14285714285714,2.6,2,3,3.33333333333333,20.1261904761905,43,40,39,20,83,59,142,45,31,14,90,0.360740740740741,0.977426526485375,-0.292638947933465,"Female",20,"Right handed","Junior College","Chinese","Not religious","Singaporean","Yes"
"68",68,1,1,1,"Indirect","LIE","Are you from Nanyang Girls' High School?",0.537037037037037,2.48444078455213,2,37,36,73,-0.502271259222083,-2.93362685406997,1.27184309181154,0.631618623678662,-0.383109099450463,2.75,2.5,1.8,2.14285714285714,2.6,2,3,3.33333333333333,20.1261904761905,43,40,39,20,83,59,142,45,31,14,90,0.360740740740741,0.977426526485375,-0.292638947933465,"Female",20,"Right handed","Junior College","Chinese","Not religious","Singaporean","Yes"
"69",69,1,1,1,"Direct","TRUTH","Which polytechnic or junior college are you from?",0.701851851851852,2.74900070193689,15,37,36,73,-0.502271259222083,-2.93362685406997,1.27184309181154,0.631618623678662,-0.383109099450463,2.75,2.5,1.8,2.14285714285714,2.6,2,3,3.33333333333333,20.1261904761905,43,40,39,20,83,59,142,45,31,14,90,0.360740740740741,0.977426526485375,-0.292638947933465,"Female",20,"Right handed","Junior College","Chinese","Not religious","Singaporean","Yes"
"70",70,1,1,1,"Indirect","TRUTH","Is your religion a free-thinker?",0.675925925925926,2.53317028039601,28,37,36,73,-0.502271259222083,-2.93362685406997,1.27184309181154,0.631618623678662,-0.383109099450463,2.75,2.5,1.8,2.14285714285714,2.6,2,3,3.33333333333333,20.1261904761905,43,40,39,20,83,59,142,45,31,14,90,0.360740740740741,0.977426526485375,-0.292638947933465,"Female",20,"Right handed","Junior College","Chinese","Not religious","Singaporean","Yes"
"71",71,1,1,1,"Direct","LIE","What food do you hate the most?",0.689814814814815,3.93361260206439,10,37,36,73,-0.502271259222083,-2.93362685406997,1.27184309181154,0.631618623678662,-0.383109099450463,2.75,2.5,1.8,2.14285714285714,2.6,2,3,3.33333333333333,20.1261904761905,43,40,39,20,83,59,142,45,31,14,90,0.360740740740741,0.977426526485375,-0.292638947933465,"Female",20,"Right handed","Junior College","Chinese","Not religious","Singaporean","Yes"
"72",72,1,1,1,"Direct","LIE","Where did you celebrate your 21st birthday?",0.27037037037037,4.53323411999736,17,37,36,73,-0.502271259222083,-2.93362685406997,1.27184309181154,0.631618623678662,-0.383109099450463,2.75,2.5,1.8,2.14285714285714,2.6,2,3,3.33333333333333,20.1261904761905,43,40,39,20,83,59,142,45,31,14,90,0.360740740740741,0.977426526485375,-0.292638947933465,"Female",20,"Right handed","Junior College","Chinese","Not religious","Singaporean","Yes"
"73",73,1,1,1,"Indirect","TRUTH","Is the Bedok station the closest MRT to your house?",0.672222222222222,2.03415802959353,19,37,36,73,-0.502271259222083,-2.93362685406997,1.27184309181154,0.631618623678662,-0.383109099450463,2.75,2.5,1.8,2.14285714285714,2.6,2,3,3.33333333333333,20.1261904761905,43,40,39,20,83,59,142,45,31,14,90,0.360740740740741,0.977426526485375,-0.292638947933465,"Female",20,"Right handed","Junior College","Chinese","Not religious","Singaporean","Yes"
"74",74,1,1,1,"Indirect","TRUTH","Do you use a Xiaomi phone?",0.689814814814815,2.56729205942247,29,37,36,73,-0.502271259222083,-2.93362685406997,1.27184309181154,0.631618623678662,-0.383109099450463,2.75,2.5,1.8,2.14285714285714,2.6,2,3,3.33333333333333,20.1261904761905,43,40,39,20,83,59,142,45,31,14,90,0.360740740740741,0.977426526485375,-0.292638947933465,"Female",20,"Right handed","Junior College","Chinese","Not religious","Singaporean","Yes"
"75",75,1,1,1,"Indirect","TRUTH","Is your favourite flavour Chocolate?",0.705555555555555,1.9648022511974,14,37,36,73,-0.502271259222083,-2.93362685406997,1.27184309181154,0.631618623678662,-0.383109099450463,2.75,2.5,1.8,2.14285714285714,2.6,2,3,3.33333333333333,20.1261904761905,43,40,39,20,83,59,142,45,31,14,90,0.360740740740741,0.977426526485375,-0.292638947933465,"Female",20,"Right handed","Junior College","Chinese","Not religious","Singaporean","Yes"
"76",76,1,1,1,"Direct","LIE","Which polytechnic or junior college are you from?",0.538888888888889,2.66706275008619,15,37,36,73,-0.502271259222083,-2.93362685406997,1.27184309181154,0.631618623678662,-0.383109099450463,2.75,2.5,1.8,2.14285714285714,2.6,2,3,3.33333333333333,20.1261904761905,43,40,39,20,83,59,142,45,31,14,90,0.360740740740741,0.977426526485375,-0.292638947933465,"Female",20,"Right handed","Junior College","Chinese","Not religious","Singaporean","Yes"
"77",77,1,1,1,"Indirect","TRUTH","Did you not celebrate your 21st birthday?",0.426851851851852,4.71626254182775,17,37,36,73,-0.502271259222083,-2.93362685406997,1.27184309181154,0.631618623678662,-0.383109099450463,2.75,2.5,1.8,2.14285714285714,2.6,2,3,3.33333333333333,20.1261904761905,43,40,39,20,83,59,142,45,31,14,90,0.360740740740741,0.977426526485375,-0.292638947933465,"Female",20,"Right handed","Junior College","Chinese","Not religious","Singaporean","Yes"
"78",78,1,1,1,"Direct","LIE","What was the last country you visited?",0.686111111111111,3.15060721396003,18,37,36,73,-0.502271259222083,-2.93362685406997,1.27184309181154,0.631618623678662,-0.383109099450463,2.75,2.5,1.8,2.14285714285714,2.6,2,3,3.33333333333333,20.1261904761905,43,40,39,20,83,59,142,45,31,14,90,0.360740740740741,0.977426526485375,-0.292638947933465,"Female",20,"Right handed","Junior College","Chinese","Not religious","Singaporean","Yes"
"79",79,1,1,1,"Direct","TRUTH","Which school in NTU are you from? (Eg. NBS, SSS, SOH)",0.637962962962963,0.948553632362746,21,37,36,73,-0.502271259222083,-2.93362685406997,1.27184309181154,0.631618623678662,-0.383109099450463,2.75,2.5,1.8,2.14285714285714,2.6,2,3,3.33333333333333,20.1261904761905,43,40,39,20,83,59,142,45,31,14,90,0.360740740740741,0.977426526485375,-0.292638947933465,"Female",20,"Right handed","Junior College","Chinese","Not religious","Singaporean","Yes"
"80",80,1,1,1,"Direct","LIE","Which primary school are you from?",0.351851851851852,3.68275991047267,1,37,36,73,-0.502271259222083,-2.93362685406997,1.27184309181154,0.631618623678662,-0.383109099450463,2.75,2.5,1.8,2.14285714285714,2.6,2,3,3.33333333333333,20.1261904761905,43,40,39,20,83,59,142,45,31,14,90,0.360740740740741,0.977426526485375,-0.292638947933465,"Female",20,"Right handed","Junior College","Chinese","Not religious","Singaporean","Yes"
"81",1,1,0,2,"Indirect","LIE","Were you in the Swimming CCA during secondary school?",0.525925925925926,7.80206647794694,6,36,31,67,-0.0837509785643431,-1.20194099171887,-1.01653482522917,-1.67758379958503,-0.994952648774353,2,0.166666666666667,3.8,1.28571428571429,4.2,2,0.333333333333333,4,17.7857142857143,40,55,48,25,95,73,168,44,34,12,90,0.170740740740741,0.921576255216045,0.282532859456382,"Female",20,"Right handed","Polytechnic","Chinese","Buddhism","Singaporean","Yes"
"82",2,1,1,2,"Indirect","TRUTH","Are you from School of Humanities in NTU?",0.996296296296296,7.26935494411737,21,36,31,67,-0.0837509785643431,-1.20194099171887,-1.01653482522917,-1.67758379958503,-0.994952648774353,2,0.166666666666667,3.8,1.28571428571429,4.2,2,0.333333333333333,4,17.7857142857143,40,55,48,25,95,73,168,44,34,12,90,0.170740740740741,0.921576255216045,0.282532859456382,"Female",20,"Right handed","Polytechnic","Chinese","Buddhism","Singaporean","Yes"
"83",3,1,1,2,"Direct","TRUTH","What brand of handphone do you use?",0.996296296296296,3.61689477832988,29,36,31,67,-0.0837509785643431,-1.20194099171887,-1.01653482522917,-1.67758379958503,-0.994952648774353,2,0.166666666666667,3.8,1.28571428571429,4.2,2,0.333333333333333,4,17.7857142857143,40,55,48,25,95,73,168,44,34,12,90,0.170740740740741,0.921576255216045,0.282532859456382,"Female",20,"Right handed","Polytechnic","Chinese","Buddhism","Singaporean","Yes"
"84",4,1,1,2,"Direct","LIE","Which year in NTU are you currently in? (Eg. 1, 2, 3, 4)",0,8.76632047863677,22,36,31,67,-0.0837509785643431,-1.20194099171887,-1.01653482522917,-1.67758379958503,-0.994952648774353,2,0.166666666666667,3.8,1.28571428571429,4.2,2,0.333333333333333,4,17.7857142857143,40,55,48,25,95,73,168,44,34,12,90,0.170740740740741,0.921576255216045,0.282532859456382,"Female",20,"Right handed","Polytechnic","Chinese","Buddhism","Singaporean","Yes"
"85",5,1,1,2,"Direct","LIE","What is your favourite country you visited? ",0.218518518518519,4.79996265866794,5,36,31,67,-0.0837509785643431,-1.20194099171887,-1.01653482522917,-1.67758379958503,-0.994952648774353,2,0.166666666666667,3.8,1.28571428571429,4.2,2,0.333333333333333,4,17.7857142857143,40,55,48,25,95,73,168,44,34,12,90,0.170740740740741,0.921576255216045,0.282532859456382,"Female",20,"Right handed","Polytechnic","Chinese","Buddhism","Singaporean","Yes"
"86",6,1,1,2,"Indirect","TRUTH","Is your favourite sport Netball?",0.860185185185185,3.0993507609237,7,36,31,67,-0.0837509785643431,-1.20194099171887,-1.01653482522917,-1.67758379958503,-0.994952648774353,2,0.166666666666667,3.8,1.28571428571429,4.2,2,0.333333333333333,4,17.7857142857143,40,55,48,25,95,73,168,44,34,12,90,0.170740740740741,0.921576255216045,0.282532859456382,"Female",20,"Right handed","Polytechnic","Chinese","Buddhism","Singaporean","Yes"
"87",7,1,1,2,"Direct","TRUTH","What brand of laptop do you mainly use?",0.999074074074074,2.25043885712512,30,36,31,67,-0.0837509785643431,-1.20194099171887,-1.01653482522917,-1.67758379958503,-0.994952648774353,2,0.166666666666667,3.8,1.28571428571429,4.2,2,0.333333333333333,4,17.7857142857143,40,55,48,25,95,73,168,44,34,12,90,0.170740740740741,0.921576255216045,0.282532859456382,"Female",20,"Right handed","Polytechnic","Chinese","Buddhism","Singaporean","Yes"
"88",8,1,1,2,"Indirect","LIE","Are you from National Junior College?",0.160185185185185,4.68385609099641,15,36,31,67,-0.0837509785643431,-1.20194099171887,-1.01653482522917,-1.67758379958503,-0.994952648774353,2,0.166666666666667,3.8,1.28571428571429,4.2,2,0.333333333333333,4,17.7857142857143,40,55,48,25,95,73,168,44,34,12,90,0.170740740740741,0.921576255216045,0.282532859456382,"Female",20,"Right handed","Polytechnic","Chinese","Buddhism","Singaporean","Yes"
"89",9,1,1,2,"Direct","TRUTH","What food do you hate the most?",0.900925925925926,3.95008963206783,10,36,31,67,-0.0837509785643431,-1.20194099171887,-1.01653482522917,-1.67758379958503,-0.994952648774353,2,0.166666666666667,3.8,1.28571428571429,4.2,2,0.333333333333333,4,17.7857142857143,40,55,48,25,95,73,168,44,34,12,90,0.170740740740741,0.921576255216045,0.282532859456382,"Female",20,"Right handed","Polytechnic","Chinese","Buddhism","Singaporean","Yes"
"90",10,0,0,2,"Direct","LIE","What course are you studying?",0.486111111111111,2.34998145746067,23,36,31,67,-0.0837509785643431,-1.20194099171887,-1.01653482522917,-1.67758379958503,-0.994952648774353,2,0.166666666666667,3.8,1.28571428571429,4.2,2,0.333333333333333,4,17.7857142857143,40,55,48,25,95,73,168,44,34,12,90,0.170740740740741,0.921576255216045,0.282532859456382,"Female",20,"Right handed","Polytechnic","Chinese","Buddhism","Singaporean","Yes"
"91",11,1,1,2,"Direct","LIE","What food do you hate the most?",0.110185185185185,4.28387957345694,10,36,31,67,-0.0837509785643431,-1.20194099171887,-1.01653482522917,-1.67758379958503,-0.994952648774353,2,0.166666666666667,3.8,1.28571428571429,4.2,2,0.333333333333333,4,17.7857142857143,40,55,48,25,95,73,168,44,34,12,90,0.170740740740741,0.921576255216045,0.282532859456382,"Female",20,"Right handed","Polytechnic","Chinese","Buddhism","Singaporean","Yes"
"92",12,1,1,2,"Indirect","LIE","Do you use a Dell laptop?",0.0703703703703704,4.18384165479802,30,36,31,67,-0.0837509785643431,-1.20194099171887,-1.01653482522917,-1.67758379958503,-0.994952648774353,2,0.166666666666667,3.8,1.28571428571429,4.2,2,0.333333333333333,4,17.7857142857143,40,55,48,25,95,73,168,44,34,12,90,0.170740740740741,0.921576255216045,0.282532859456382,"Female",20,"Right handed","Polytechnic","Chinese","Buddhism","Singaporean","Yes"
"93",13,1,1,2,"Direct","TRUTH","What was the last country you visited?",0.925925925925926,2.43343551945873,18,36,31,67,-0.0837509785643431,-1.20194099171887,-1.01653482522917,-1.67758379958503,-0.994952648774353,2,0.166666666666667,3.8,1.28571428571429,4.2,2,0.333333333333333,4,17.7857142857143,40,55,48,25,95,73,168,44,34,12,90,0.170740740740741,0.921576255216045,0.282532859456382,"Female",20,"Right handed","Polytechnic","Chinese","Buddhism","Singaporean","Yes"
"94",14,1,1,2,"Direct","LIE","How many siblings do you have? (Eg. 0, 1, 2, 3)",0.89537037037037,2.43564135371707,16,36,31,67,-0.0837509785643431,-1.20194099171887,-1.01653482522917,-1.67758379958503,-0.994952648774353,2,0.166666666666667,3.8,1.28571428571429,4.2,2,0.333333333333333,4,17.7857142857143,40,55,48,25,95,73,168,44,34,12,90,0.170740740740741,0.921576255216045,0.282532859456382,"Female",20,"Right handed","Polytechnic","Chinese","Buddhism","Singaporean","Yes"
"95",15,1,1,2,"Direct","LIE","What is your favourite sport?",0.0833333333333333,2.30041498946957,7,36,31,67,-0.0837509785643431,-1.20194099171887,-1.01653482522917,-1.67758379958503,-0.994952648774353,2,0.166666666666667,3.8,1.28571428571429,4.2,2,0.333333333333333,4,17.7857142857143,40,55,48,25,95,73,168,44,34,12,90,0.170740740740741,0.921576255216045,0.282532859456382,"Female",20,"Right handed","Polytechnic","Chinese","Buddhism","Singaporean","Yes"
"96",16,1,1,2,"Direct","TRUTH","Which secondary school did you attend?",0.897222222222222,1.81495950836688,2,36,31,67,-0.0837509785643431,-1.20194099171887,-1.01653482522917,-1.67758379958503,-0.994952648774353,2,0.166666666666667,3.8,1.28571428571429,4.2,2,0.333333333333333,4,17.7857142857143,40,55,48,25,95,73,168,44,34,12,90,0.170740740740741,0.921576255216045,0.282532859456382,"Female",20,"Right handed","Polytechnic","Chinese","Buddhism","Singaporean","Yes"
"97",17,1,1,2,"Direct","TRUTH","Which MRT station is closest to your house?",0.897222222222222,2.16542730177753,19,36,31,67,-0.0837509785643431,-1.20194099171887,-1.01653482522917,-1.67758379958503,-0.994952648774353,2,0.166666666666667,3.8,1.28571428571429,4.2,2,0.333333333333333,4,17.7857142857143,40,55,48,25,95,73,168,44,34,12,90,0.170740740740741,0.921576255216045,0.282532859456382,"Female",20,"Right handed","Polytechnic","Chinese","Buddhism","Singaporean","Yes"
"98",18,1,1,2,"Direct","TRUTH","How frequently do you drink alcohol?",0.982407407407407,1.64843345992267,27,36,31,67,-0.0837509785643431,-1.20194099171887,-1.01653482522917,-1.67758379958503,-0.994952648774353,2,0.166666666666667,3.8,1.28571428571429,4.2,2,0.333333333333333,4,17.7857142857143,40,55,48,25,95,73,168,44,34,12,90,0.170740740740741,0.921576255216045,0.282532859456382,"Female",20,"Right handed","Polytechnic","Chinese","Buddhism","Singaporean","Yes"
"99",19,1,1,2,"Direct","LIE","How frequently do you drink alcohol?",0.00555555555555554,3.73497716523707,27,36,31,67,-0.0837509785643431,-1.20194099171887,-1.01653482522917,-1.67758379958503,-0.994952648774353,2,0.166666666666667,3.8,1.28571428571429,4.2,2,0.333333333333333,4,17.7857142857143,40,55,48,25,95,73,168,44,34,12,90,0.170740740740741,0.921576255216045,0.282532859456382,"Female",20,"Right handed","Polytechnic","Chinese","Buddhism","Singaporean","Yes"
"100",20,1,1,2,"Indirect","LIE","Is your house on the 16 floor of the building?",0.0175925925925926,4.99944501277059,20,36,31,67,-0.0837509785643431,-1.20194099171887,-1.01653482522917,-1.67758379958503,-0.994952648774353,2,0.166666666666667,3.8,1.28571428571429,4.2,2,0.333333333333333,4,17.7857142857143,40,55,48,25,95,73,168,44,34,12,90,0.170740740740741,0.921576255216045,0.282532859456382,"Female",20,"Right handed","Polytechnic","Chinese","Buddhism","Singaporean","Yes"
"101",21,1,1,2,"Direct","TRUTH","Which year in NTU are you currently in? (Eg. 1, 2, 3, 4)",0.986111111111111,4.66636532661505,22,36,31,67,-0.0837509785643431,-1.20194099171887,-1.01653482522917,-1.67758379958503,-0.994952648774353,2,0.166666666666667,3.8,1.28571428571429,4.2,2,0.333333333333333,4,17.7857142857143,40,55,48,25,95,73,168,44,34,12,90,0.170740740740741,0.921576255216045,0.282532859456382,"Female",20,"Right handed","Polytechnic","Chinese","Buddhism","Singaporean","Yes"
"102",22,1,1,2,"Indirect","TRUTH","Are you from Nanyang polytechnic?",0.993518518518518,4.55098216724582,15,36,31,67,-0.0837509785643431,-1.20194099171887,-1.01653482522917,-1.67758379958503,-0.994952648774353,2,0.166666666666667,3.8,1.28571428571429,4.2,2,0.333333333333333,4,17.7857142857143,40,55,48,25,95,73,168,44,34,12,90,0.170740740740741,0.921576255216045,0.282532859456382,"Female",20,"Right handed","Polytechnic","Chinese","Buddhism","Singaporean","Yes"
"103",23,1,1,2,"Indirect","TRUTH","Is your favourite country Korea?",1,3.76600641338155,5,36,31,67,-0.0837509785643431,-1.20194099171887,-1.01653482522917,-1.67758379958503,-0.994952648774353,2,0.166666666666667,3.8,1.28571428571429,4.2,2,0.333333333333333,4,17.7857142857143,40,55,48,25,95,73,168,44,34,12,90,0.170740740740741,0.921576255216045,0.282532859456382,"Female",20,"Right handed","Polytechnic","Chinese","Buddhism","Singaporean","Yes"
"104",24,1,1,2,"Direct","LIE","Which secondary school did you attend?",0.0574074074074074,1.83143910462968,2,36,31,67,-0.0837509785643431,-1.20194099171887,-1.01653482522917,-1.67758379958503,-0.994952648774353,2,0.166666666666667,3.8,1.28571428571429,4.2,2,0.333333333333333,4,17.7857142857143,40,55,48,25,95,73,168,44,34,12,90,0.170740740740741,0.921576255216045,0.282532859456382,"Female",20,"Right handed","Polytechnic","Chinese","Buddhism","Singaporean","Yes"
"105",25,1,1,2,"Direct","LIE","What religion do you practice?",0.0388888888888889,3.67039748630486,28,36,31,67,-0.0837509785643431,-1.20194099171887,-1.01653482522917,-1.67758379958503,-0.994952648774353,2,0.166666666666667,3.8,1.28571428571429,4.2,2,0.333333333333333,4,17.7857142857143,40,55,48,25,95,73,168,44,34,12,90,0.170740740740741,0.921576255216045,0.282532859456382,"Female",20,"Right handed","Polytechnic","Chinese","Buddhism","Singaporean","Yes"
"106",26,1,1,2,"Direct","TRUTH","Which primary school are you from?",0.968518518518519,1.49873154889792,1,36,31,67,-0.0837509785643431,-1.20194099171887,-1.01653482522917,-1.67758379958503,-0.994952648774353,2,0.166666666666667,3.8,1.28571428571429,4.2,2,0.333333333333333,4,17.7857142857143,40,55,48,25,95,73,168,44,34,12,90,0.170740740740741,0.921576255216045,0.282532859456382,"Female",20,"Right handed","Polytechnic","Chinese","Buddhism","Singaporean","Yes"
"107",27,1,1,2,"Indirect","LIE","Is your dream job a Scientist when you were growing up?",0.0425925925925926,2.46688842633739,13,36,31,67,-0.0837509785643431,-1.20194099171887,-1.01653482522917,-1.67758379958503,-0.994952648774353,2,0.166666666666667,3.8,1.28571428571429,4.2,2,0.333333333333333,4,17.7857142857143,40,55,48,25,95,73,168,44,34,12,90,0.170740740740741,0.921576255216045,0.282532859456382,"Female",20,"Right handed","Polytechnic","Chinese","Buddhism","Singaporean","Yes"
"108",28,1,1,2,"Indirect","LIE","Are you from Edgefield Primary School?",0.000925925925925941,2.96709149400704,1,36,31,67,-0.0837509785643431,-1.20194099171887,-1.01653482522917,-1.67758379958503,-0.994952648774353,2,0.166666666666667,3.8,1.28571428571429,4.2,2,0.333333333333333,4,17.7857142857143,40,55,48,25,95,73,168,44,34,12,90,0.170740740740741,0.921576255216045,0.282532859456382,"Female",20,"Right handed","Polytechnic","Chinese","Buddhism","Singaporean","Yes"
"109",29,1,1,2,"Indirect","TRUTH","Is your house on the 5 floor of the building?",0.962037037037037,1.0490291249007,20,36,31,67,-0.0837509785643431,-1.20194099171887,-1.01653482522917,-1.67758379958503,-0.994952648774353,2,0.166666666666667,3.8,1.28571428571429,4.2,2,0.333333333333333,4,17.7857142857143,40,55,48,25,95,73,168,44,34,12,90,0.170740740740741,0.921576255216045,0.282532859456382,"Female",20,"Right handed","Polytechnic","Chinese","Buddhism","Singaporean","Yes"
"110",30,1,1,2,"Indirect","TRUTH","Is your religion Christianity?",0.962037037037037,2.03534531756304,28,36,31,67,-0.0837509785643431,-1.20194099171887,-1.01653482522917,-1.67758379958503,-0.994952648774353,2,0.166666666666667,3.8,1.28571428571429,4.2,2,0.333333333333333,4,17.7857142857143,40,55,48,25,95,73,168,44,34,12,90,0.170740740740741,0.921576255216045,0.282532859456382,"Female",20,"Right handed","Polytechnic","Chinese","Buddhism","Singaporean","Yes"
"111",31,1,1,2,"Indirect","LIE","Is the Cityhall station the closest MRT to your house?",0.05,2.26747953612357,19,36,31,67,-0.0837509785643431,-1.20194099171887,-1.01653482522917,-1.67758379958503,-0.994952648774353,2,0.166666666666667,3.8,1.28571428571429,4.2,2,0.333333333333333,4,17.7857142857143,40,55,48,25,95,73,168,44,34,12,90,0.170740740740741,0.921576255216045,0.282532859456382,"Female",20,"Right handed","Polytechnic","Chinese","Buddhism","Singaporean","Yes"
"112",32,1,1,2,"Direct","LIE","What was the last country you visited?",0.05,2.00298185413703,18,36,31,67,-0.0837509785643431,-1.20194099171887,-1.01653482522917,-1.67758379958503,-0.994952648774353,2,0.166666666666667,3.8,1.28571428571429,4.2,2,0.333333333333333,4,17.7857142857143,40,55,48,25,95,73,168,44,34,12,90,0.170740740740741,0.921576255216045,0.282532859456382,"Female",20,"Right handed","Polytechnic","Chinese","Buddhism","Singaporean","Yes"
"113",33,1,1,2,"Direct","LIE","Which school in NTU are you from? (Eg. NBS, SSS, SOH)",0.05,1.26600448880345,21,36,31,67,-0.0837509785643431,-1.20194099171887,-1.01653482522917,-1.67758379958503,-0.994952648774353,2,0.166666666666667,3.8,1.28571428571429,4.2,2,0.333333333333333,4,17.7857142857143,40,55,48,25,95,73,168,44,34,12,90,0.170740740740741,0.921576255216045,0.282532859456382,"Female",20,"Right handed","Polytechnic","Chinese","Buddhism","Singaporean","Yes"
"114",34,1,0,2,"Indirect","TRUTH","Are you studying Business course in NTU?",0.95462962962963,2.51760015753098,23,36,31,67,-0.0837509785643431,-1.20194099171887,-1.01653482522917,-1.67758379958503,-0.994952648774353,2,0.166666666666667,3.8,1.28571428571429,4.2,2,0.333333333333333,4,17.7857142857143,40,55,48,25,95,73,168,44,34,12,90,0.170740740740741,0.921576255216045,0.282532859456382,"Female",20,"Right handed","Polytechnic","Chinese","Buddhism","Singaporean","Yes"
"115",35,1,1,2,"Indirect","TRUTH","Is Yilin your closest friend back in secondary school?",0.958333333333333,2.03354658116587,3,36,31,67,-0.0837509785643431,-1.20194099171887,-1.01653482522917,-1.67758379958503,-0.994952648774353,2,0.166666666666667,3.8,1.28571428571429,4.2,2,0.333333333333333,4,17.7857142857143,40,55,48,25,95,73,168,44,34,12,90,0.170740740740741,0.921576255216045,0.282532859456382,"Female",20,"Right handed","Polytechnic","Chinese","Buddhism","Singaporean","Yes"
"116",36,1,1,2,"Direct","TRUTH","What is your dream job growing up?",0.947222222222222,1.94985961704515,13,36,31,67,-0.0837509785643431,-1.20194099171887,-1.01653482522917,-1.67758379958503,-0.994952648774353,2,0.166666666666667,3.8,1.28571428571429,4.2,2,0.333333333333333,4,17.7857142857143,40,55,48,25,95,73,168,44,34,12,90,0.170740740740741,0.921576255216045,0.282532859456382,"Female",20,"Right handed","Polytechnic","Chinese","Buddhism","Singaporean","Yes"
"117",37,1,1,2,"Indirect","LIE","Do you use a Huawei phone?",0.0555555555555556,2.7834564356599,29,36,31,67,-0.0837509785643431,-1.20194099171887,-1.01653482522917,-1.67758379958503,-0.994952648774353,2,0.166666666666667,3.8,1.28571428571429,4.2,2,0.333333333333333,4,17.7857142857143,40,55,48,25,95,73,168,44,34,12,90,0.170740740740741,0.921576255216045,0.282532859456382,"Female",20,"Right handed","Polytechnic","Chinese","Buddhism","Singaporean","Yes"
"118",38,1,1,2,"Direct","LIE","Who is your closest friend back in secondary school?",0.0620370370370371,6.66573206358589,3,36,31,67,-0.0837509785643431,-1.20194099171887,-1.01653482522917,-1.67758379958503,-0.994952648774353,2,0.166666666666667,3.8,1.28571428571429,4.2,2,0.333333333333333,4,17.7857142857143,40,55,48,25,95,73,168,44,34,12,90,0.170740740740741,0.921576255216045,0.282532859456382,"Female",20,"Right handed","Polytechnic","Chinese","Buddhism","Singaporean","Yes"
"119",39,1,1,2,"Indirect","TRUTH","Were you in the Taekwondo CCA during secondary school?",0.961111111111111,2.5349472023081,6,36,31,67,-0.0837509785643431,-1.20194099171887,-1.01653482522917,-1.67758379958503,-0.994952648774353,2,0.166666666666667,3.8,1.28571428571429,4.2,2,0.333333333333333,4,17.7857142857143,40,55,48,25,95,73,168,44,34,12,90,0.170740740740741,0.921576255216045,0.282532859456382,"Female",20,"Right handed","Polytechnic","Chinese","Buddhism","Singaporean","Yes"
"120",40,1,1,2,"Indirect","TRUTH","Do you have 4 siblings?",0.961111111111111,0.981426208512858,16,36,31,67,-0.0837509785643431,-1.20194099171887,-1.01653482522917,-1.67758379958503,-0.994952648774353,2,0.166666666666667,3.8,1.28571428571429,4.2,2,0.333333333333333,4,17.7857142857143,40,55,48,25,95,73,168,44,34,12,90,0.170740740740741,0.921576255216045,0.282532859456382,"Female",20,"Right handed","Polytechnic","Chinese","Buddhism","Singaporean","Yes"
"121",41,0,0,2,"Indirect","TRUTH","Do you hate eating Pancakes the most?",0.977777777777778,3.26819107495248,10,36,31,67,-0.0837509785643431,-1.20194099171887,-1.01653482522917,-1.67758379958503,-0.994952648774353,2,0.166666666666667,3.8,1.28571428571429,4.2,2,0.333333333333333,4,17.7857142857143,40,55,48,25,95,73,168,44,34,12,90,0.170740740740741,0.921576255216045,0.282532859456382,"Female",20,"Right handed","Polytechnic","Chinese","Buddhism","Singaporean","Yes"
"122",42,0,0,2,"Indirect","LIE","Are you in your 1st year in NTU?",0.0231481481481481,2.56715507688932,22,36,31,67,-0.0837509785643431,-1.20194099171887,-1.01653482522917,-1.67758379958503,-0.994952648774353,2,0.166666666666667,3.8,1.28571428571429,4.2,2,0.333333333333333,4,17.7857142857143,40,55,48,25,95,73,168,44,34,12,90,0.170740740740741,0.921576255216045,0.282532859456382,"Female",20,"Right handed","Polytechnic","Chinese","Buddhism","Singaporean","Yes"
"123",43,0,0,2,"Indirect","LIE","Is Joel your closest friend back in secondary school?",0.0611111111111111,4.36914873262867,3,36,31,67,-0.0837509785643431,-1.20194099171887,-1.01653482522917,-1.67758379958503,-0.994952648774353,2,0.166666666666667,3.8,1.28571428571429,4.2,2,0.333333333333333,4,17.7857142857143,40,55,48,25,95,73,168,44,34,12,90,0.170740740740741,0.921576255216045,0.282532859456382,"Female",20,"Right handed","Polytechnic","Chinese","Buddhism","Singaporean","Yes"
"124",44,0,0,2,"Direct","TRUTH","What is your favourite sport?",0.951851851851852,2.56827820464969,7,36,31,67,-0.0837509785643431,-1.20194099171887,-1.01653482522917,-1.67758379958503,-0.994952648774353,2,0.166666666666667,3.8,1.28571428571429,4.2,2,0.333333333333333,4,17.7857142857143,40,55,48,25,95,73,168,44,34,12,90,0.170740740740741,0.921576255216045,0.282532859456382,"Female",20,"Right handed","Polytechnic","Chinese","Buddhism","Singaporean","Yes"
"125",45,0,0,2,"Direct","TRUTH","Which floor of the building is your house on?",0.951851851851852,4.06708578392863,20,36,31,67,-0.0837509785643431,-1.20194099171887,-1.01653482522917,-1.67758379958503,-0.994952648774353,2,0.166666666666667,3.8,1.28571428571429,4.2,2,0.333333333333333,4,17.7857142857143,40,55,48,25,95,73,168,44,34,12,90,0.170740740740741,0.921576255216045,0.282532859456382,"Female",20,"Right handed","Polytechnic","Chinese","Buddhism","Singaporean","Yes"
"126",46,0,0,2,"Indirect","TRUTH","Are you in your 3rd year in NTU?",0.951851851851852,1.54960624780506,22,36,31,67,-0.0837509785643431,-1.20194099171887,-1.01653482522917,-1.67758379958503,-0.994952648774353,2,0.166666666666667,3.8,1.28571428571429,4.2,2,0.333333333333333,4,17.7857142857143,40,55,48,25,95,73,168,44,34,12,90,0.170740740740741,0.921576255216045,0.282532859456382,"Female",20,"Right handed","Polytechnic","Chinese","Buddhism","Singaporean","Yes"
"127",47,0,0,2,"Indirect","LIE","Are you from School of Physical and Mathematical Sciences in NTU?",0.037962962962963,2.05005119997077,21,36,31,67,-0.0837509785643431,-1.20194099171887,-1.01653482522917,-1.67758379958503,-0.994952648774353,2,0.166666666666667,3.8,1.28571428571429,4.2,2,0.333333333333333,4,17.7857142857143,40,55,48,25,95,73,168,44,34,12,90,0.170740740740741,0.921576255216045,0.282532859456382,"Female",20,"Right handed","Polytechnic","Chinese","Buddhism","Singaporean","Yes"
"128",48,0,0,2,"Indirect","TRUTH","Is the Punggol station the closest MRT to your house?",0.934259259259259,2.45205229846761,19,36,31,67,-0.0837509785643431,-1.20194099171887,-1.01653482522917,-1.67758379958503,-0.994952648774353,2,0.166666666666667,3.8,1.28571428571429,4.2,2,0.333333333333333,4,17.7857142857143,40,55,48,25,95,73,168,44,34,12,90,0.170740740740741,0.921576255216045,0.282532859456382,"Female",20,"Right handed","Polytechnic","Chinese","Buddhism","Singaporean","Yes"
"129",49,0,0,2,"Direct","TRUTH","Which polytechnic or junior college are you from?",0.922222222222222,1.76626465911977,15,36,31,67,-0.0837509785643431,-1.20194099171887,-1.01653482522917,-1.67758379958503,-0.994952648774353,2,0.166666666666667,3.8,1.28571428571429,4.2,2,0.333333333333333,4,17.7857142857143,40,55,48,25,95,73,168,44,34,12,90,0.170740740740741,0.921576255216045,0.282532859456382,"Female",20,"Right handed","Polytechnic","Chinese","Buddhism","Singaporean","Yes"
"130",50,0,0,2,"Indirect","TRUTH","Was the last country you visited Taiwan?",0.92962962962963,6.90213391045108,18,36,31,67,-0.0837509785643431,-1.20194099171887,-1.01653482522917,-1.67758379958503,-0.994952648774353,2,0.166666666666667,3.8,1.28571428571429,4.2,2,0.333333333333333,4,17.7857142857143,40,55,48,25,95,73,168,44,34,12,90,0.170740740740741,0.921576255216045,0.282532859456382,"Female",20,"Right handed","Polytechnic","Chinese","Buddhism","Singaporean","Yes"
"131",51,0,0,2,"Direct","LIE","Which floor of the building is your house on?",0.0240740740740741,18.3837898129132,20,36,31,67,-0.0837509785643431,-1.20194099171887,-1.01653482522917,-1.67758379958503,-0.994952648774353,2,0.166666666666667,3.8,1.28571428571429,4.2,2,0.333333333333333,4,17.7857142857143,40,55,48,25,95,73,168,44,34,12,90,0.170740740740741,0.921576255216045,0.282532859456382,"Female",20,"Right handed","Polytechnic","Chinese","Buddhism","Singaporean","Yes"
"132",52,0,0,2,"Direct","TRUTH","Who is your closest friend back in secondary school?",0.528703703703704,7.70146587234922,3,36,31,67,-0.0837509785643431,-1.20194099171887,-1.01653482522917,-1.67758379958503,-0.994952648774353,2,0.166666666666667,3.8,1.28571428571429,4.2,2,0.333333333333333,4,17.7857142857143,40,55,48,25,95,73,168,44,34,12,90,0.170740740740741,0.921576255216045,0.282532859456382,"Female",20,"Right handed","Polytechnic","Chinese","Buddhism","Singaporean","Yes"
"133",53,1,0,2,"Direct","LIE","What is your dream job growing up?",0.0722222222222222,2.56590555352159,13,36,31,67,-0.0837509785643431,-1.20194099171887,-1.01653482522917,-1.67758379958503,-0.994952648774353,2,0.166666666666667,3.8,1.28571428571429,4.2,2,0.333333333333333,4,17.7857142857143,40,55,48,25,95,73,168,44,34,12,90,0.170740740740741,0.921576255216045,0.282532859456382,"Female",20,"Right handed","Polytechnic","Chinese","Buddhism","Singaporean","Yes"
"134",54,1,1,2,"Direct","LIE","Which polytechnic or junior college are you from?",0.0722222222222222,2.03599590412341,15,36,31,67,-0.0837509785643431,-1.20194099171887,-1.01653482522917,-1.67758379958503,-0.994952648774353,2,0.166666666666667,3.8,1.28571428571429,4.2,2,0.333333333333333,4,17.7857142857143,40,55,48,25,95,73,168,44,34,12,90,0.170740740740741,0.921576255216045,0.282532859456382,"Female",20,"Right handed","Polytechnic","Chinese","Buddhism","Singaporean","Yes"
"135",55,1,1,2,"Direct","LIE","What CCA (Co-curricular Activity) did you join in secondary school?",0.0722222222222222,1.63337597856298,6,36,31,67,-0.0837509785643431,-1.20194099171887,-1.01653482522917,-1.67758379958503,-0.994952648774353,2,0.166666666666667,3.8,1.28571428571429,4.2,2,0.333333333333333,4,17.7857142857143,40,55,48,25,95,73,168,44,34,12,90,0.170740740740741,0.921576255216045,0.282532859456382,"Female",20,"Right handed","Polytechnic","Chinese","Buddhism","Singaporean","Yes"
"136",56,1,1,2,"Indirect","LIE","Do you hate eating Ramen the most?",0.0722222222222222,1.9159008054994,10,36,31,67,-0.0837509785643431,-1.20194099171887,-1.01653482522917,-1.67758379958503,-0.994952648774353,2,0.166666666666667,3.8,1.28571428571429,4.2,2,0.333333333333333,4,17.7857142857143,40,55,48,25,95,73,168,44,34,12,90,0.170740740740741,0.921576255216045,0.282532859456382,"Female",20,"Right handed","Polytechnic","Chinese","Buddhism","Singaporean","Yes"
"137",57,1,1,2,"Direct","LIE","What brand of handphone do you use?",0.0722222222222222,1.63323065522127,29,36,31,67,-0.0837509785643431,-1.20194099171887,-1.01653482522917,-1.67758379958503,-0.994952648774353,2,0.166666666666667,3.8,1.28571428571429,4.2,2,0.333333333333333,4,17.7857142857143,40,55,48,25,95,73,168,44,34,12,90,0.170740740740741,0.921576255216045,0.282532859456382,"Female",20,"Right handed","Polytechnic","Chinese","Buddhism","Singaporean","Yes"
"138",58,1,1,2,"Indirect","TRUTH","Are you from Edgefield Secondary School?",0.938888888888889,3.15318966982886,2,36,31,67,-0.0837509785643431,-1.20194099171887,-1.01653482522917,-1.67758379958503,-0.994952648774353,2,0.166666666666667,3.8,1.28571428571429,4.2,2,0.333333333333333,4,17.7857142857143,40,55,48,25,95,73,168,44,34,12,90,0.170740740740741,0.921576255216045,0.282532859456382,"Female",20,"Right handed","Polytechnic","Chinese","Buddhism","Singaporean","Yes"
"139",59,1,1,2,"Indirect","TRUTH","Do you not drink alcohol at all?",0.963888888888889,5.60213788831607,27,36,31,67,-0.0837509785643431,-1.20194099171887,-1.01653482522917,-1.67758379958503,-0.994952648774353,2,0.166666666666667,3.8,1.28571428571429,4.2,2,0.333333333333333,4,17.7857142857143,40,55,48,25,95,73,168,44,34,12,90,0.170740740740741,0.921576255216045,0.282532859456382,"Female",20,"Right handed","Polytechnic","Chinese","Buddhism","Singaporean","Yes"
"140",60,1,1,2,"Direct","TRUTH","What is your favourite country you visited? ",0.984259259259259,1.48182368208654,5,36,31,67,-0.0837509785643431,-1.20194099171887,-1.01653482522917,-1.67758379958503,-0.994952648774353,2,0.166666666666667,3.8,1.28571428571429,4.2,2,0.333333333333333,4,17.7857142857143,40,55,48,25,95,73,168,44,34,12,90,0.170740740740741,0.921576255216045,0.282532859456382,"Female",20,"Right handed","Polytechnic","Chinese","Buddhism","Singaporean","Yes"
"141",61,1,1,2,"Indirect","TRUTH","Is your dream job a Teacher when you were growing up?",0.986111111111111,1.86494269827381,13,36,31,67,-0.0837509785643431,-1.20194099171887,-1.01653482522917,-1.67758379958503,-0.994952648774353,2,0.166666666666667,3.8,1.28571428571429,4.2,2,0.333333333333333,4,17.7857142857143,40,55,48,25,95,73,168,44,34,12,90,0.170740740740741,0.921576255216045,0.282532859456382,"Female",20,"Right handed","Polytechnic","Chinese","Buddhism","Singaporean","Yes"
"142",62,1,0,2,"Direct","TRUTH","What course are you studying?",0.987037037037037,1.51498690503649,23,36,31,67,-0.0837509785643431,-1.20194099171887,-1.01653482522917,-1.67758379958503,-0.994952648774353,2,0.166666666666667,3.8,1.28571428571429,4.2,2,0.333333333333333,4,17.7857142857143,40,55,48,25,95,73,168,44,34,12,90,0.170740740740741,0.921576255216045,0.282532859456382,"Female",20,"Right handed","Polytechnic","Chinese","Buddhism","Singaporean","Yes"
"143",63,1,1,2,"Direct","TRUTH","Which school in NTU are you from? (Eg. NBS, SSS, SOH)",0.986111111111111,3.88349660020322,21,36,31,67,-0.0837509785643431,-1.20194099171887,-1.01653482522917,-1.67758379958503,-0.994952648774353,2,0.166666666666667,3.8,1.28571428571429,4.2,2,0.333333333333333,4,17.7857142857143,40,55,48,25,95,73,168,44,34,12,90,0.170740740740741,0.921576255216045,0.282532859456382,"Female",20,"Right handed","Polytechnic","Chinese","Buddhism","Singaporean","Yes"
"144",64,1,1,2,"Indirect","LIE","Was the last country you visited Japan?",0.107407407407407,2.03337816009298,18,36,31,67,-0.0837509785643431,-1.20194099171887,-1.01653482522917,-1.67758379958503,-0.994952648774353,2,0.166666666666667,3.8,1.28571428571429,4.2,2,0.333333333333333,4,17.7857142857143,40,55,48,25,95,73,168,44,34,12,90,0.170740740740741,0.921576255216045,0.282532859456382,"Female",20,"Right handed","Polytechnic","Chinese","Buddhism","Singaporean","Yes"
"145",65,1,1,2,"Indirect","LIE","Is your favourite country Italy?",0.106481481481481,1.83182502957061,5,36,31,67,-0.0837509785643431,-1.20194099171887,-1.01653482522917,-1.67758379958503,-0.994952648774353,2,0.166666666666667,3.8,1.28571428571429,4.2,2,0.333333333333333,4,17.7857142857143,40,55,48,25,95,73,168,44,34,12,90,0.170740740740741,0.921576255216045,0.282532859456382,"Female",20,"Right handed","Polytechnic","Chinese","Buddhism","Singaporean","Yes"
"146",66,1,1,2,"Indirect","LIE","Are you from Serangoon Secondary School?",0.106481481481481,1.73364647873677,2,36,31,67,-0.0837509785643431,-1.20194099171887,-1.01653482522917,-1.67758379958503,-0.994952648774353,2,0.166666666666667,3.8,1.28571428571429,4.2,2,0.333333333333333,4,17.7857142857143,40,55,48,25,95,73,168,44,34,12,90,0.170740740740741,0.921576255216045,0.282532859456382,"Female",20,"Right handed","Polytechnic","Chinese","Buddhism","Singaporean","Yes"
"147",67,1,1,2,"Direct","LIE","Which primary school are you from?",0.106481481481481,1.4150628708303,1,36,31,67,-0.0837509785643431,-1.20194099171887,-1.01653482522917,-1.67758379958503,-0.994952648774353,2,0.166666666666667,3.8,1.28571428571429,4.2,2,0.333333333333333,4,17.7857142857143,40,55,48,25,95,73,168,44,34,12,90,0.170740740740741,0.921576255216045,0.282532859456382,"Female",20,"Right handed","Polytechnic","Chinese","Buddhism","Singaporean","Yes"
"148",68,1,1,2,"Direct","LIE","What brand of laptop do you mainly use?",0.106481481481481,3.76782119018026,30,36,31,67,-0.0837509785643431,-1.20194099171887,-1.01653482522917,-1.67758379958503,-0.994952648774353,2,0.166666666666667,3.8,1.28571428571429,4.2,2,0.333333333333333,4,17.7857142857143,40,55,48,25,95,73,168,44,34,12,90,0.170740740740741,0.921576255216045,0.282532859456382,"Female",20,"Right handed","Polytechnic","Chinese","Buddhism","Singaporean","Yes"
"149",69,1,1,2,"Indirect","LIE","Is your favourite sport Tennis?",0.0203703703703704,2.5674338536337,7,36,31,67,-0.0837509785643431,-1.20194099171887,-1.01653482522917,-1.67758379958503,-0.994952648774353,2,0.166666666666667,3.8,1.28571428571429,4.2,2,0.333333333333333,4,17.7857142857143,40,55,48,25,95,73,168,44,34,12,90,0.170740740740741,0.921576255216045,0.282532859456382,"Female",20,"Right handed","Polytechnic","Chinese","Buddhism","Singaporean","Yes"
"150",70,1,1,2,"Indirect","LIE","Do you drink alcohol socially?",0.0203703703703704,1.64917739969678,27,36,31,67,-0.0837509785643431,-1.20194099171887,-1.01653482522917,-1.67758379958503,-0.994952648774353,2,0.166666666666667,3.8,1.28571428571429,4.2,2,0.333333333333333,4,17.7857142857143,40,55,48,25,95,73,168,44,34,12,90,0.170740740740741,0.921576255216045,0.282532859456382,"Female",20,"Right handed","Polytechnic","Chinese","Buddhism","Singaporean","Yes"
"151",71,1,1,2,"Indirect","LIE","Is your religion Buddhism?",0.0203703703703704,1.54867143067531,28,36,31,67,-0.0837509785643431,-1.20194099171887,-1.01653482522917,-1.67758379958503,-0.994952648774353,2,0.166666666666667,3.8,1.28571428571429,4.2,2,0.333333333333333,4,17.7857142857143,40,55,48,25,95,73,168,44,34,12,90,0.170740740740741,0.921576255216045,0.282532859456382,"Female",20,"Right handed","Polytechnic","Chinese","Buddhism","Singaporean","Yes"
"152",72,1,1,2,"Indirect","LIE","Are you studying Chemistry and Biological Chemistry in NTU?",0.0203703703703704,1.33354388643056,23,36,31,67,-0.0837509785643431,-1.20194099171887,-1.01653482522917,-1.67758379958503,-0.994952648774353,2,0.166666666666667,3.8,1.28571428571429,4.2,2,0.333333333333333,4,17.7857142857143,40,55,48,25,95,73,168,44,34,12,90,0.170740740740741,0.921576255216045,0.282532859456382,"Female",20,"Right handed","Polytechnic","Chinese","Buddhism","Singaporean","Yes"
"153",73,1,1,2,"Direct","TRUTH","What CCA (Co-curricular Activity) did you join in secondary school?",0.95462962962963,1.98171781748533,6,36,31,67,-0.0837509785643431,-1.20194099171887,-1.01653482522917,-1.67758379958503,-0.994952648774353,2,0.166666666666667,3.8,1.28571428571429,4.2,2,0.333333333333333,4,17.7857142857143,40,55,48,25,95,73,168,44,34,12,90,0.170740740740741,0.921576255216045,0.282532859456382,"Female",20,"Right handed","Polytechnic","Chinese","Buddhism","Singaporean","Yes"
"154",74,1,1,2,"Direct","TRUTH","How many siblings do you have? (Eg. 0, 1, 2, 3)",0.95462962962963,1.46590003557503,16,36,31,67,-0.0837509785643431,-1.20194099171887,-1.01653482522917,-1.67758379958503,-0.994952648774353,2,0.166666666666667,3.8,1.28571428571429,4.2,2,0.333333333333333,4,17.7857142857143,40,55,48,25,95,73,168,44,34,12,90,0.170740740740741,0.921576255216045,0.282532859456382,"Female",20,"Right handed","Polytechnic","Chinese","Buddhism","Singaporean","Yes"
"155",75,1,1,2,"Indirect","TRUTH","Do you use a Samsung phone?",0.948148148148148,2.2004591957666,29,36,31,67,-0.0837509785643431,-1.20194099171887,-1.01653482522917,-1.67758379958503,-0.994952648774353,2,0.166666666666667,3.8,1.28571428571429,4.2,2,0.333333333333333,4,17.7857142857143,40,55,48,25,95,73,168,44,34,12,90,0.170740740740741,0.921576255216045,0.282532859456382,"Female",20,"Right handed","Polytechnic","Chinese","Buddhism","Singaporean","Yes"
"156",76,1,1,2,"Indirect","TRUTH","Do you use an Apple laptop?",0.869444444444444,5.85024194885045,30,36,31,67,-0.0837509785643431,-1.20194099171887,-1.01653482522917,-1.67758379958503,-0.994952648774353,2,0.166666666666667,3.8,1.28571428571429,4.2,2,0.333333333333333,4,17.7857142857143,40,55,48,25,95,73,168,44,34,12,90,0.170740740740741,0.921576255216045,0.282532859456382,"Female",20,"Right handed","Polytechnic","Chinese","Buddhism","Singaporean","Yes"
"157",77,1,1,2,"Indirect","LIE","Do you have 2 siblings?",0.0453703703703704,1.98402855382301,16,36,31,67,-0.0837509785643431,-1.20194099171887,-1.01653482522917,-1.67758379958503,-0.994952648774353,2,0.166666666666667,3.8,1.28571428571429,4.2,2,0.333333333333333,4,17.7857142857143,40,55,48,25,95,73,168,44,34,12,90,0.170740740740741,0.921576255216045,0.282532859456382,"Female",20,"Right handed","Polytechnic","Chinese","Buddhism","Singaporean","Yes"
"158",78,1,1,2,"Direct","LIE","Which MRT station is closest to your house?",0.0425925925925926,1.7824542503804,19,36,31,67,-0.0837509785643431,-1.20194099171887,-1.01653482522917,-1.67758379958503,-0.994952648774353,2,0.166666666666667,3.8,1.28571428571429,4.2,2,0.333333333333333,4,17.7857142857143,40,55,48,25,95,73,168,44,34,12,90,0.170740740740741,0.921576255216045,0.282532859456382,"Female",20,"Right handed","Polytechnic","Chinese","Buddhism","Singaporean","Yes"
"159",79,1,1,2,"Indirect","TRUTH","Are you from Woodlands Primary School?",0.955555555555555,2.10013448027894,1,36,31,67,-0.0837509785643431,-1.20194099171887,-1.01653482522917,-1.67758379958503,-0.994952648774353,2,0.166666666666667,3.8,1.28571428571429,4.2,2,0.333333333333333,4,17.7857142857143,40,55,48,25,95,73,168,44,34,12,90,0.170740740740741,0.921576255216045,0.282532859456382,"Female",20,"Right handed","Polytechnic","Chinese","Buddhism","Singaporean","Yes"
"160",80,1,1,2,"Direct","TRUTH","What religion do you practice?",0.950925925925926,1.56668542302214,28,36,31,67,-0.0837509785643431,-1.20194099171887,-1.01653482522917,-1.67758379958503,-0.994952648774353,2,0.166666666666667,3.8,1.28571428571429,4.2,2,0.333333333333333,4,17.7857142857143,40,55,48,25,95,73,168,44,34,12,90,0.170740740740741,0.921576255216045,0.282532859456382,"Female",20,"Right handed","Polytechnic","Chinese","Buddhism","Singaporean","Yes"
"161",1,1,1,3,"Direct","LIE","Which floor of the building is your house on?",0,0,20,33,48,81,2.67635229991524,0.645573729598412,-0.190852915097921,0.532323013858614,0.915849032068585,3,1.83333333333333,2,3.14285714285714,3.8,3.75,3.33333333333333,4,24.8595238095238,50,32,44,26,82,70,152,33,28,10,71,0,0.957341032326322,NA,"Female",21,"Right handed","Junior College","Chinese","Buddhism","Singaporean","Yes"
"162",2,1,1,3,"Indirect","TRUTH","Were you in the Netball CCA during secondary school?",0,0,6,33,48,81,2.67635229991524,0.645573729598412,-0.190852915097921,0.532323013858614,0.915849032068585,3,1.83333333333333,2,3.14285714285714,3.8,3.75,3.33333333333333,4,24.8595238095238,50,32,44,26,82,70,152,33,28,10,71,0,0.957341032326322,NA,"Female",21,"Right handed","Junior College","Chinese","Buddhism","Singaporean","Yes"
"163",3,1,1,3,"Direct","TRUTH","What brand of handphone do you use?",0,0,29,33,48,81,2.67635229991524,0.645573729598412,-0.190852915097921,0.532323013858614,0.915849032068585,3,1.83333333333333,2,3.14285714285714,3.8,3.75,3.33333333333333,4,24.8595238095238,50,32,44,26,82,70,152,33,28,10,71,0,0.957341032326322,NA,"Female",21,"Right handed","Junior College","Chinese","Buddhism","Singaporean","Yes"
"164",4,0,0,3,"Direct","TRUTH","How old is your mum? (Eg. 45, 52)",0,0,24,33,48,81,2.67635229991524,0.645573729598412,-0.190852915097921,0.532323013858614,0.915849032068585,3,1.83333333333333,2,3.14285714285714,3.8,3.75,3.33333333333333,4,24.8595238095238,50,32,44,26,82,70,152,33,28,10,71,0,0.957341032326322,NA,"Female",21,"Right handed","Junior College","Chinese","Buddhism","Singaporean","Yes"
"165",5,1,1,3,"Direct","TRUTH","Which MRT station is closest to your house?",0,0,19,33,48,81,2.67635229991524,0.645573729598412,-0.190852915097921,0.532323013858614,0.915849032068585,3,1.83333333333333,2,3.14285714285714,3.8,3.75,3.33333333333333,4,24.8595238095238,50,32,44,26,82,70,152,33,28,10,71,0,0.957341032326322,NA,"Female",21,"Right handed","Junior College","Chinese","Buddhism","Singaporean","Yes"
"166",6,1,1,3,"Direct","LIE","What brand of laptop do you mainly use?",0,0,30,33,48,81,2.67635229991524,0.645573729598412,-0.190852915097921,0.532323013858614,0.915849032068585,3,1.83333333333333,2,3.14285714285714,3.8,3.75,3.33333333333333,4,24.8595238095238,50,32,44,26,82,70,152,33,28,10,71,0,0.957341032326322,NA,"Female",21,"Right handed","Junior College","Chinese","Buddhism","Singaporean","Yes"
"167",7,1,1,3,"Direct","LIE","Which primary school are you from?",0,0,1,33,48,81,2.67635229991524,0.645573729598412,-0.190852915097921,0.532323013858614,0.915849032068585,3,1.83333333333333,2,3.14285714285714,3.8,3.75,3.33333333333333,4,24.8595238095238,50,32,44,26,82,70,152,33,28,10,71,0,0.957341032326322,NA,"Female",21,"Right handed","Junior College","Chinese","Buddhism","Singaporean","Yes"
"168",8,1,1,3,"Indirect","TRUTH","Do you smoke regularly?",0,0,26,33,48,81,2.67635229991524,0.645573729598412,-0.190852915097921,0.532323013858614,0.915849032068585,3,1.83333333333333,2,3.14285714285714,3.8,3.75,3.33333333333333,4,24.8595238095238,50,32,44,26,82,70,152,33,28,10,71,0,0.957341032326322,NA,"Female",21,"Right handed","Junior College","Chinese","Buddhism","Singaporean","Yes"
"169",9,0,0,3,"Indirect","TRUTH","Is your favourite flavour Strawberry?",0,0,14,33,48,81,2.67635229991524,0.645573729598412,-0.190852915097921,0.532323013858614,0.915849032068585,3,1.83333333333333,2,3.14285714285714,3.8,3.75,3.33333333333333,4,24.8595238095238,50,32,44,26,82,70,152,33,28,10,71,0,0.957341032326322,NA,"Female",21,"Right handed","Junior College","Chinese","Buddhism","Singaporean","Yes"
"170",10,0,0,3,"Indirect","LIE","Is your favourite flavour Chocolate?",0,0,14,33,48,81,2.67635229991524,0.645573729598412,-0.190852915097921,0.532323013858614,0.915849032068585,3,1.83333333333333,2,3.14285714285714,3.8,3.75,3.33333333333333,4,24.8595238095238,50,32,44,26,82,70,152,33,28,10,71,0,0.957341032326322,NA,"Female",21,"Right handed","Junior College","Chinese","Buddhism","Singaporean","Yes"
"171",11,1,1,3,"Direct","TRUTH","Which secondary school did you attend?",0,0,2,33,48,81,2.67635229991524,0.645573729598412,-0.190852915097921,0.532323013858614,0.915849032068585,3,1.83333333333333,2,3.14285714285714,3.8,3.75,3.33333333333333,4,24.8595238095238,50,32,44,26,82,70,152,33,28,10,71,0,0.957341032326322,NA,"Female",21,"Right handed","Junior College","Chinese","Buddhism","Singaporean","Yes"
"172",12,1,1,3,"Direct","TRUTH","How old is your dad? (Eg. 45, 52)",0,0,25,33,48,81,2.67635229991524,0.645573729598412,-0.190852915097921,0.532323013858614,0.915849032068585,3,1.83333333333333,2,3.14285714285714,3.8,3.75,3.33333333333333,4,24.8595238095238,50,32,44,26,82,70,152,33,28,10,71,0,0.957341032326322,NA,"Female",21,"Right handed","Junior College","Chinese","Buddhism","Singaporean","Yes"
"173",13,1,0,3,"Indirect","LIE","Is Mrs Leong your favourite teacher in secondary school?",0,0,4,33,48,81,2.67635229991524,0.645573729598412,-0.190852915097921,0.532323013858614,0.915849032068585,3,1.83333333333333,2,3.14285714285714,3.8,3.75,3.33333333333333,4,24.8595238095238,50,32,44,26,82,70,152,33,28,10,71,0,0.957341032326322,NA,"Female",21,"Right handed","Junior College","Chinese","Buddhism","Singaporean","Yes"
"174",14,1,1,3,"Indirect","LIE","Are you studying Business course in NTU?",0,0,23,33,48,81,2.67635229991524,0.645573729598412,-0.190852915097921,0.532323013858614,0.915849032068585,3,1.83333333333333,2,3.14285714285714,3.8,3.75,3.33333333333333,4,24.8595238095238,50,32,44,26,82,70,152,33,28,10,71,0,0.957341032326322,NA,"Female",21,"Right handed","Junior College","Chinese","Buddhism","Singaporean","Yes"
"175",15,1,1,3,"Indirect","LIE","Do you not smoke at all? ",0,0,26,33,48,81,2.67635229991524,0.645573729598412,-0.190852915097921,0.532323013858614,0.915849032068585,3,1.83333333333333,2,3.14285714285714,3.8,3.75,3.33333333333333,4,24.8595238095238,50,32,44,26,82,70,152,33,28,10,71,0,0.957341032326322,NA,"Female",21,"Right handed","Junior College","Chinese","Buddhism","Singaporean","Yes"
"176",16,1,1,3,"Indirect","TRUTH","Are you from Canberra Primary School?",0,0,1,33,48,81,2.67635229991524,0.645573729598412,-0.190852915097921,0.532323013858614,0.915849032068585,3,1.83333333333333,2,3.14285714285714,3.8,3.75,3.33333333333333,4,24.8595238095238,50,32,44,26,82,70,152,33,28,10,71,0,0.957341032326322,NA,"Female",21,"Right handed","Junior College","Chinese","Buddhism","Singaporean","Yes"
"177",17,1,0,3,"Indirect","TRUTH","Are you from Temasek Polytechnic?",0,0,15,33,48,81,2.67635229991524,0.645573729598412,-0.190852915097921,0.532323013858614,0.915849032068585,3,1.83333333333333,2,3.14285714285714,3.8,3.75,3.33333333333333,4,24.8595238095238,50,32,44,26,82,70,152,33,28,10,71,0,0.957341032326322,NA,"Female",21,"Right handed","Junior College","Chinese","Buddhism","Singaporean","Yes"
"178",18,1,0,3,"Indirect","TRUTH","Is your religion Buddhism?",0,0,28,33,48,81,2.67635229991524,0.645573729598412,-0.190852915097921,0.532323013858614,0.915849032068585,3,1.83333333333333,2,3.14285714285714,3.8,3.75,3.33333333333333,4,24.8595238095238,50,32,44,26,82,70,152,33,28,10,71,0,0.957341032326322,NA,"Female",21,"Right handed","Junior College","Chinese","Buddhism","Singaporean","Yes"
"179",19,1,1,3,"Direct","LIE","Which polytechnic or junior college are you from?",0,0,15,33,48,81,2.67635229991524,0.645573729598412,-0.190852915097921,0.532323013858614,0.915849032068585,3,1.83333333333333,2,3.14285714285714,3.8,3.75,3.33333333333333,4,24.8595238095238,50,32,44,26,82,70,152,33,28,10,71,0,0.957341032326322,NA,"Female",21,"Right handed","Junior College","Chinese","Buddhism","Singaporean","Yes"
"180",20,1,1,3,"Indirect","TRUTH","Are you in your 3rd year in NTU?",0,0,22,33,48,81,2.67635229991524,0.645573729598412,-0.190852915097921,0.532323013858614,0.915849032068585,3,1.83333333333333,2,3.14285714285714,3.8,3.75,3.33333333333333,4,24.8595238095238,50,32,44,26,82,70,152,33,28,10,71,0,0.957341032326322,NA,"Female",21,"Right handed","Junior College","Chinese","Buddhism","Singaporean","Yes"
"181",21,1,1,3,"Indirect","LIE","Is your dad 49 years old this year?",0,0,25,33,48,81,2.67635229991524,0.645573729598412,-0.190852915097921,0.532323013858614,0.915849032068585,3,1.83333333333333,2,3.14285714285714,3.8,3.75,3.33333333333333,4,24.8595238095238,50,32,44,26,82,70,152,33,28,10,71,0,0.957341032326322,NA,"Female",21,"Right handed","Junior College","Chinese","Buddhism","Singaporean","Yes"
"182",22,1,1,3,"Indirect","TRUTH","Did you celebrate your 21st birthday at home?",0,0,17,33,48,81,2.67635229991524,0.645573729598412,-0.190852915097921,0.532323013858614,0.915849032068585,3,1.83333333333333,2,3.14285714285714,3.8,3.75,3.33333333333333,4,24.8595238095238,50,32,44,26,82,70,152,33,28,10,71,0,0.957341032326322,NA,"Female",21,"Right handed","Junior College","Chinese","Buddhism","Singaporean","Yes"
"183",23,1,1,3,"Direct","LIE","What religion do you practice?",0,0,28,33,48,81,2.67635229991524,0.645573729598412,-0.190852915097921,0.532323013858614,0.915849032068585,3,1.83333333333333,2,3.14285714285714,3.8,3.75,3.33333333333333,4,24.8595238095238,50,32,44,26,82,70,152,33,28,10,71,0,0.957341032326322,NA,"Female",21,"Right handed","Junior College","Chinese","Buddhism","Singaporean","Yes"
"184",24,1,1,3,"Direct","TRUTH","Who is your favourite teacher in secondary school?",0,0,4,33,48,81,2.67635229991524,0.645573729598412,-0.190852915097921,0.532323013858614,0.915849032068585,3,1.83333333333333,2,3.14285714285714,3.8,3.75,3.33333333333333,4,24.8595238095238,50,32,44,26,82,70,152,33,28,10,71,0,0.957341032326322,NA,"Female",21,"Right handed","Junior College","Chinese","Buddhism","Singaporean","Yes"
"185",25,1,1,3,"Indirect","LIE","Are you in your 1st year in NTU?",0,0,22,33,48,81,2.67635229991524,0.645573729598412,-0.190852915097921,0.532323013858614,0.915849032068585,3,1.83333333333333,2,3.14285714285714,3.8,3.75,3.33333333333333,4,24.8595238095238,50,32,44,26,82,70,152,33,28,10,71,0,0.957341032326322,NA,"Female",21,"Right handed","Junior College","Chinese","Buddhism","Singaporean","Yes"
"186",26,1,1,3,"Indirect","LIE","Is your mum 42 years old this year?",0,0,24,33,48,81,2.67635229991524,0.645573729598412,-0.190852915097921,0.532323013858614,0.915849032068585,3,1.83333333333333,2,3.14285714285714,3.8,3.75,3.33333333333333,4,24.8595238095238,50,32,44,26,82,70,152,33,28,10,71,0,0.957341032326322,NA,"Female",21,"Right handed","Junior College","Chinese","Buddhism","Singaporean","Yes"
"187",27,1,1,3,"Indirect","TRUTH","Is your house on the 6th floor of the building?",0,0,20,33,48,81,2.67635229991524,0.645573729598412,-0.190852915097921,0.532323013858614,0.915849032068585,3,1.83333333333333,2,3.14285714285714,3.8,3.75,3.33333333333333,4,24.8595238095238,50,32,44,26,82,70,152,33,28,10,71,0,0.957341032326322,NA,"Female",21,"Right handed","Junior College","Chinese","Buddhism","Singaporean","Yes"
"188",28,1,1,3,"Indirect","LIE","Do you have 3 siblings?",0,0,16,33,48,81,2.67635229991524,0.645573729598412,-0.190852915097921,0.532323013858614,0.915849032068585,3,1.83333333333333,2,3.14285714285714,3.8,3.75,3.33333333333333,4,24.8595238095238,50,32,44,26,82,70,152,33,28,10,71,0,0.957341032326322,NA,"Female",21,"Right handed","Junior College","Chinese","Buddhism","Singaporean","Yes"
"189",29,1,1,3,"Direct","LIE","Where did you celebrate your 21st birthday?",0,0,17,33,48,81,2.67635229991524,0.645573729598412,-0.190852915097921,0.532323013858614,0.915849032068585,3,1.83333333333333,2,3.14285714285714,3.8,3.75,3.33333333333333,4,24.8595238095238,50,32,44,26,82,70,152,33,28,10,71,0,0.957341032326322,NA,"Female",21,"Right handed","Junior College","Chinese","Buddhism","Singaporean","Yes"
"190",30,1,0,3,"Indirect","TRUTH","Was the last country you visited Australia?",0,0,18,33,48,81,2.67635229991524,0.645573729598412,-0.190852915097921,0.532323013858614,0.915849032068585,3,1.83333333333333,2,3.14285714285714,3.8,3.75,3.33333333333333,4,24.8595238095238,50,32,44,26,82,70,152,33,28,10,71,0,0.957341032326322,NA,"Female",21,"Right handed","Junior College","Chinese","Buddhism","Singaporean","Yes"
"191",31,1,1,3,"Indirect","TRUTH","Do you have 0 siblings?",0,0,16,33,48,81,2.67635229991524,0.645573729598412,-0.190852915097921,0.532323013858614,0.915849032068585,3,1.83333333333333,2,3.14285714285714,3.8,3.75,3.33333333333333,4,24.8595238095238,50,32,44,26,82,70,152,33,28,10,71,0,0.957341032326322,NA,"Female",21,"Right handed","Junior College","Chinese","Buddhism","Singaporean","Yes"
"192",32,1,1,3,"Direct","TRUTH","What was your favourite subject back in secondary school?",0,0,12,33,48,81,2.67635229991524,0.645573729598412,-0.190852915097921,0.532323013858614,0.915849032068585,3,1.83333333333333,2,3.14285714285714,3.8,3.75,3.33333333333333,4,24.8595238095238,50,32,44,26,82,70,152,33,28,10,71,0,0.957341032326322,NA,"Female",21,"Right handed","Junior College","Chinese","Buddhism","Singaporean","Yes"
"193",33,1,1,3,"Indirect","LIE","Are you from Naval Base Secondary School?",0,0,2,33,48,81,2.67635229991524,0.645573729598412,-0.190852915097921,0.532323013858614,0.915849032068585,3,1.83333333333333,2,3.14285714285714,3.8,3.75,3.33333333333333,4,24.8595238095238,50,32,44,26,82,70,152,33,28,10,71,0,0.957341032326322,NA,"Female",21,"Right handed","Junior College","Chinese","Buddhism","Singaporean","Yes"
"194",34,1,1,3,"Direct","LIE","Which MRT station is closest to your house?",0,0,19,33,48,81,2.67635229991524,0.645573729598412,-0.190852915097921,0.532323013858614,0.915849032068585,3,1.83333333333333,2,3.14285714285714,3.8,3.75,3.33333333333333,4,24.8595238095238,50,32,44,26,82,70,152,33,28,10,71,0,0.957341032326322,NA,"Female",21,"Right handed","Junior College","Chinese","Buddhism","Singaporean","Yes"
"195",35,1,1,3,"Indirect","TRUTH","Are you studying Materials Science and Engineering course in NTU?",0,0,23,33,48,81,2.67635229991524,0.645573729598412,-0.190852915097921,0.532323013858614,0.915849032068585,3,1.83333333333333,2,3.14285714285714,3.8,3.75,3.33333333333333,4,24.8595238095238,50,32,44,26,82,70,152,33,28,10,71,0,0.957341032326322,NA,"Female",21,"Right handed","Junior College","Chinese","Buddhism","Singaporean","Yes"
"196",36,1,0,3,"Direct","LIE","What was the last country you visited?",0,0,18,33,48,81,2.67635229991524,0.645573729598412,-0.190852915097921,0.532323013858614,0.915849032068585,3,1.83333333333333,2,3.14285714285714,3.8,3.75,3.33333333333333,4,24.8595238095238,50,32,44,26,82,70,152,33,28,10,71,0,0.957341032326322,NA,"Female",21,"Right handed","Junior College","Chinese","Buddhism","Singaporean","Yes"
"197",37,1,1,3,"Direct","TRUTH","What brand of laptop do you mainly use?",0,0,30,33,48,81,2.67635229991524,0.645573729598412,-0.190852915097921,0.532323013858614,0.915849032068585,3,1.83333333333333,2,3.14285714285714,3.8,3.75,3.33333333333333,4,24.8595238095238,50,32,44,26,82,70,152,33,28,10,71,0,0.957341032326322,NA,"Female",21,"Right handed","Junior College","Chinese","Buddhism","Singaporean","Yes"
"198",38,1,1,3,"Indirect","LIE","Were you in the NPCC CCA during secondary school?",0,0,6,33,48,81,2.67635229991524,0.645573729598412,-0.190852915097921,0.532323013858614,0.915849032068585,3,1.83333333333333,2,3.14285714285714,3.8,3.75,3.33333333333333,4,24.8595238095238,50,32,44,26,82,70,152,33,28,10,71,0,0.957341032326322,NA,"Female",21,"Right handed","Junior College","Chinese","Buddhism","Singaporean","Yes"
"199",39,1,1,3,"Direct","LIE","What brand of handphone do you use?",0,0,29,33,48,81,2.67635229991524,0.645573729598412,-0.190852915097921,0.532323013858614,0.915849032068585,3,1.83333333333333,2,3.14285714285714,3.8,3.75,3.33333333333333,4,24.8595238095238,50,32,44,26,82,70,152,33,28,10,71,0,0.957341032326322,NA,"Female",21,"Right handed","Junior College","Chinese","Buddhism","Singaporean","Yes"
"200",40,1,1,3,"Direct","LIE","What was your favourite subject back in secondary school?",0,0,12,33,48,81,2.67635229991524,0.645573729598412,-0.190852915097921,0.532323013858614,0.915849032068585,3,1.83333333333333,2,3.14285714285714,3.8,3.75,3.33333333333333,4,24.8595238095238,50,32,44,26,82,70,152,33,28,10,71,0,0.957341032326322,NA,"Female",21,"Right handed","Junior College","Chinese","Buddhism","Singaporean","Yes"
"201",41,1,1,3,"Indirect","TRUTH","Are you from Anderson Secondary School?",0,0,2,33,48,81,2.67635229991524,0.645573729598412,-0.190852915097921,0.532323013858614,0.915849032068585,3,1.83333333333333,2,3.14285714285714,3.8,3.75,3.33333333333333,4,24.8595238095238,50,32,44,26,82,70,152,33,28,10,71,0,0.957341032326322,NA,"Female",21,"Right handed","Junior College","Chinese","Buddhism","Singaporean","Yes"
"202",42,1,1,3,"Indirect","TRUTH","Do you use a Apple phone?",0,0,29,33,48,81,2.67635229991524,0.645573729598412,-0.190852915097921,0.532323013858614,0.915849032068585,3,1.83333333333333,2,3.14285714285714,3.8,3.75,3.33333333333333,4,24.8595238095238,50,32,44,26,82,70,152,33,28,10,71,0,0.957341032326322,NA,"Female",21,"Right handed","Junior College","Chinese","Buddhism","Singaporean","Yes"
"203",43,1,1,3,"Direct","TRUTH","What religion do you practice?",0,0,28,33,48,81,2.67635229991524,0.645573729598412,-0.190852915097921,0.532323013858614,0.915849032068585,3,1.83333333333333,2,3.14285714285714,3.8,3.75,3.33333333333333,4,24.8595238095238,50,32,44,26,82,70,152,33,28,10,71,0,0.957341032326322,NA,"Female",21,"Right handed","Junior College","Chinese","Buddhism","Singaporean","Yes"
"204",44,1,1,3,"Direct","TRUTH","What course are you studying?",0,0,23,33,48,81,2.67635229991524,0.645573729598412,-0.190852915097921,0.532323013858614,0.915849032068585,3,1.83333333333333,2,3.14285714285714,3.8,3.75,3.33333333333333,4,24.8595238095238,50,32,44,26,82,70,152,33,28,10,71,0,0.957341032326322,NA,"Female",21,"Right handed","Junior College","Chinese","Buddhism","Singaporean","Yes"
"205",45,1,1,3,"Direct","LIE","What is your favourite flavour?(E.g. chocolate, vanilla, milktea; it can be a complicated flavour)",0,0,14,33,48,81,2.67635229991524,0.645573729598412,-0.190852915097921,0.532323013858614,0.915849032068585,3,1.83333333333333,2,3.14285714285714,3.8,3.75,3.33333333333333,4,24.8595238095238,50,32,44,26,82,70,152,33,28,10,71,0,0.957341032326322,NA,"Female",21,"Right handed","Junior College","Chinese","Buddhism","Singaporean","Yes"
"206",46,1,1,3,"Indirect","LIE","Did you celebrate your 21st birthday at Marina Bay Sands?",0,0,17,33,48,81,2.67635229991524,0.645573729598412,-0.190852915097921,0.532323013858614,0.915849032068585,3,1.83333333333333,2,3.14285714285714,3.8,3.75,3.33333333333333,4,24.8595238095238,50,32,44,26,82,70,152,33,28,10,71,0,0.957341032326322,NA,"Female",21,"Right handed","Junior College","Chinese","Buddhism","Singaporean","Yes"
"207",47,1,1,3,"Indirect","LIE","Was your favourite subject Chemistry back in secondary school?",0,0,12,33,48,81,2.67635229991524,0.645573729598412,-0.190852915097921,0.532323013858614,0.915849032068585,3,1.83333333333333,2,3.14285714285714,3.8,3.75,3.33333333333333,4,24.8595238095238,50,32,44,26,82,70,152,33,28,10,71,0,0.957341032326322,NA,"Female",21,"Right handed","Junior College","Chinese","Buddhism","Singaporean","Yes"
"208",48,1,1,3,"Direct","TRUTH","What is your favourite flavour?(E.g. chocolate, vanilla, milktea; it can be a complicated flavour)",0,0,14,33,48,81,2.67635229991524,0.645573729598412,-0.190852915097921,0.532323013858614,0.915849032068585,3,1.83333333333333,2,3.14285714285714,3.8,3.75,3.33333333333333,4,24.8595238095238,50,32,44,26,82,70,152,33,28,10,71,0,0.957341032326322,NA,"Female",21,"Right handed","Junior College","Chinese","Buddhism","Singaporean","Yes"
"209",49,1,0,3,"Indirect","TRUTH","Is your dad 53 years old this year?",0,0,25,33,48,81,2.67635229991524,0.645573729598412,-0.190852915097921,0.532323013858614,0.915849032068585,3,1.83333333333333,2,3.14285714285714,3.8,3.75,3.33333333333333,4,24.8595238095238,50,32,44,26,82,70,152,33,28,10,71,0,0.957341032326322,NA,"Female",21,"Right handed","Junior College","Chinese","Buddhism","Singaporean","Yes"
"210",50,1,1,3,"Direct","TRUTH","Which primary school are you from?",0,0,1,33,48,81,2.67635229991524,0.645573729598412,-0.190852915097921,0.532323013858614,0.915849032068585,3,1.83333333333333,2,3.14285714285714,3.8,3.75,3.33333333333333,4,24.8595238095238,50,32,44,26,82,70,152,33,28,10,71,0,0.957341032326322,NA,"Female",21,"Right handed","Junior College","Chinese","Buddhism","Singaporean","Yes"
"211",51,0,0,3,"Indirect","TRUTH","Is your mum 51 years old this year?",0,0,24,33,48,81,2.67635229991524,0.645573729598412,-0.190852915097921,0.532323013858614,0.915849032068585,3,1.83333333333333,2,3.14285714285714,3.8,3.75,3.33333333333333,4,24.8595238095238,50,32,44,26,82,70,152,33,28,10,71,0,0.957341032326322,NA,"Female",21,"Right handed","Junior College","Chinese","Buddhism","Singaporean","Yes"
"212",52,1,1,3,"Direct","TRUTH","Which polytechnic or junior college are you from?",0,0,15,33,48,81,2.67635229991524,0.645573729598412,-0.190852915097921,0.532323013858614,0.915849032068585,3,1.83333333333333,2,3.14285714285714,3.8,3.75,3.33333333333333,4,24.8595238095238,50,32,44,26,82,70,152,33,28,10,71,0,0.957341032326322,NA,"Female",21,"Right handed","Junior College","Chinese","Buddhism","Singaporean","Yes"
"213",53,1,0,3,"Indirect","LIE","Was the last country you visited Bei Jing, China?",0,0,18,33,48,81,2.67635229991524,0.645573729598412,-0.190852915097921,0.532323013858614,0.915849032068585,3,1.83333333333333,2,3.14285714285714,3.8,3.75,3.33333333333333,4,24.8595238095238,50,32,44,26,82,70,152,33,28,10,71,0,0.957341032326322,NA,"Female",21,"Right handed","Junior College","Chinese","Buddhism","Singaporean","Yes"
"214",54,1,1,3,"Indirect","LIE","Do you use a Xiaomi phone?",0,0,29,33,48,81,2.67635229991524,0.645573729598412,-0.190852915097921,0.532323013858614,0.915849032068585,3,1.83333333333333,2,3.14285714285714,3.8,3.75,3.33333333333333,4,24.8595238095238,50,32,44,26,82,70,152,33,28,10,71,0,0.957341032326322,NA,"Female",21,"Right handed","Junior College","Chinese","Buddhism","Singaporean","Yes"
"215",55,1,1,3,"Indirect","LIE","Are you from Woodlands Primary School?",0,0,1,33,48,81,2.67635229991524,0.645573729598412,-0.190852915097921,0.532323013858614,0.915849032068585,3,1.83333333333333,2,3.14285714285714,3.8,3.75,3.33333333333333,4,24.8595238095238,50,32,44,26,82,70,152,33,28,10,71,0,0.957341032326322,NA,"Female",21,"Right handed","Junior College","Chinese","Buddhism","Singaporean","Yes"
"216",56,1,1,3,"Direct","LIE","Which secondary school did you attend?",0,0,2,33,48,81,2.67635229991524,0.645573729598412,-0.190852915097921,0.532323013858614,0.915849032068585,3,1.83333333333333,2,3.14285714285714,3.8,3.75,3.33333333333333,4,24.8595238095238,50,32,44,26,82,70,152,33,28,10,71,0,0.957341032326322,NA,"Female",21,"Right handed","Junior College","Chinese","Buddhism","Singaporean","Yes"
"217",57,1,1,3,"Direct","LIE","How often do you smoke?",0,0,26,33,48,81,2.67635229991524,0.645573729598412,-0.190852915097921,0.532323013858614,0.915849032068585,3,1.83333333333333,2,3.14285714285714,3.8,3.75,3.33333333333333,4,24.8595238095238,50,32,44,26,82,70,152,33,28,10,71,0,0.957341032326322,NA,"Female",21,"Right handed","Junior College","Chinese","Buddhism","Singaporean","Yes"
"218",58,1,1,3,"Indirect","TRUTH","Is the Redhill station the closest MRT to your house?",0,0,19,33,48,81,2.67635229991524,0.645573729598412,-0.190852915097921,0.532323013858614,0.915849032068585,3,1.83333333333333,2,3.14285714285714,3.8,3.75,3.33333333333333,4,24.8595238095238,50,32,44,26,82,70,152,33,28,10,71,0,0.957341032326322,NA,"Female",21,"Right handed","Junior College","Chinese","Buddhism","Singaporean","Yes"
"219",59,1,1,3,"Direct","LIE","What CCA (Co-curricular Activity) did you join in secondary school?",0,0,6,33,48,81,2.67635229991524,0.645573729598412,-0.190852915097921,0.532323013858614,0.915849032068585,3,1.83333333333333,2,3.14285714285714,3.8,3.75,3.33333333333333,4,24.8595238095238,50,32,44,26,82,70,152,33,28,10,71,0,0.957341032326322,NA,"Female",21,"Right handed","Junior College","Chinese","Buddhism","Singaporean","Yes"
"220",60,1,1,3,"Direct","TRUTH","How often do you smoke?",0,0,26,33,48,81,2.67635229991524,0.645573729598412,-0.190852915097921,0.532323013858614,0.915849032068585,3,1.83333333333333,2,3.14285714285714,3.8,3.75,3.33333333333333,4,24.8595238095238,50,32,44,26,82,70,152,33,28,10,71,0,0.957341032326322,NA,"Female",21,"Right handed","Junior College","Chinese","Buddhism","Singaporean","Yes"
"221",61,1,1,3,"Direct","LIE","Which year in NTU are you currently in? (Eg. 1, 2, 3, 4)",0,0,22,33,48,81,2.67635229991524,0.645573729598412,-0.190852915097921,0.532323013858614,0.915849032068585,3,1.83333333333333,2,3.14285714285714,3.8,3.75,3.33333333333333,4,24.8595238095238,50,32,44,26,82,70,152,33,28,10,71,0,0.957341032326322,NA,"Female",21,"Right handed","Junior College","Chinese","Buddhism","Singaporean","Yes"
