item,style,condition,question,respond,video,bitalino,trials_3.thisRepN,trials_3.thisTrialN,trials_3.thisN,trials_3.thisIndex,Trialsloop.thisRepN,Trialsloop.thisTrialN,Trialsloop.thisN,Trialsloop.thisIndex,trials_2.thisRepN,trials_2.thisTrialN,trials_2.thisN,trials_2.thisIndex,trials.thisRepN,trials.thisTrialN,trials.thisN,trials.thisIndex,IDRESPONSE.text,sensor2.started,sensor2.stopped,sensor3.started,sensor3.stopped,sensor.started,sensor.stopped,sensor4.started,sensor4.stopped,textsubjresp.started,textsubjresp.stopped,SubjectiveResponse.response,SubjectiveResponse.rt,SubjectiveResponse.started,SubjectiveResponse.stopped,textsubjcon.started,textsubjcon.stopped,sensor5.started,sensor5.stopped,sensor1.started,sensor1.stopped,sensor6.started,sensor6.stopped,participant,session,date,expName,psychopyVersion,frameRate,
1,directx,TRUTH ,What is your favourite song?,"My favourite song is "Perfect" by Ed Sheeran",,,0,0,0,0,,,,,,,,,,,,,ID 013,,,,,,,,,,,,,,,,,,,,,,,013,001,2021_Feb_19_0916,deception_task,2020.2.10,59.959183330216085,
2,indirectx,LIE,What is your favourite tv-show/tv-drama?,"My favourite drama is F.R.I.E.N.D.S",,,0,1,1,1,,,,,,,,,,,,,,,,,,,,,,,,,,,,,,,,,,,,013,001,2021_Feb_19_0916,deception_task,2020.2.10,59.959183330216085,
3,directx,TRUTH ,Is George Washington your role model in life?,""No, my role model is Lee Kuan Yew"",,,0,2,2,2,,,,,,,,,,,,,,,,,,,,,,,,,,,,,,,,,,,,013,001,2021_Feb_19_0916,deception_task,2020.2.10,59.959183330216085,
4,indirectx,LIE,Is MacDonalds your favourite restaurant?,""Yes, MacDonalds is my favourite restaurant"",,,0,3,3,3,,,,,,,,,,,,,,,,,,,,,,,,,,,,,,,,,,,,013,001,2021_Feb_19_0916,deception_task,2020.2.10,59.959183330216085,
5,directx,TRUTH ,Who is your favourite celebrity?,"My favourite celebrity is Chris Hemsworth",,,0,4,4,4,,,,,,,,,,,,,,,,,,,,,,,,,,,,,,,,,,,,013,001,2021_Feb_19_0916,deception_task,2020.2.10,59.959183330216085,
1,directx,TRUTH ,What is your favourite song?,"My favourite song is "Perfect" by Ed Sheeran",,,,,,,0,0,0,0,,,,,,,,,,,,,,,,,,,,,,,,,,,,,,,,013,001,2021_Feb_19_0916,deception_task,2020.2.10,59.959183330216085,
2,indirectx,LIE,What is your favourite tv-show/tv-drama?,"My favourite drama is F.R.I.E.N.D.S",,,,,,,0,1,1,1,,,,,,,,,,,,,,,,,,,,,,,,,,,,,,,,013,001,2021_Feb_19_0916,deception_task,2020.2.10,59.959183330216085,
3,directx,TRUTH ,Is George Washington your role model in life?,""No, my role model is Lee Kuan Yew"",,,,,,,0,2,2,2,,,,,,,,,,,,,,,,,,,,,,,,,,,,,,,,013,001,2021_Feb_19_0916,deception_task,2020.2.10,59.959183330216085,
4,indirectx,LIE,Is MacDonalds your favourite restaurant?,""Yes, MacDonalds is my favourite restaurant"",,,,,,,0,3,3,3,,,,,,,,,,,,,,,,,,,,,,,,,,,,,,,,013,001,2021_Feb_19_0916,deception_task,2020.2.10,59.959183330216085,
5,directx,TRUTH ,Who is your favourite celebrity?,"My favourite celebrity is Chris Hemsworth",,,,,,,0,4,4,4,,,,,,,,,,,,,,,,,,,,,,,,,,,,,,,,013,001,2021_Feb_19_0916,deception_task,2020.2.10,59.959183330216085,
9,Indirect,LIE,Is your favourite drink Iced Latte?,,video/V25.mp4,,,,,,,,,,0,0,0,0,,,,,,434.78735385881737,435.32062647491693,470.70040465984493,471.20027184765786,475.9993940051645,476.5330143705942,482.0489559820853,482.5486063081771,483.7323555718176,None,None,None,483.7323555718176,None,483.7323555718176,None,,,,,,,013,001,2021_Feb_19_0916,deception_task,2020.2.10,59.959183330216085,
20,Indirect,TRUTH,Is your house on the 9th floor of the building?,,video/V20.mp4,,,,,,,,,,0,1,1,1,,,,,,494.7479128628038,495.24776336876675,515.1790395705029,515.6789154200815,518.5285860206932,519.0617062556557,525.9611037257127,526.4779580188915,528.2445983369835,None,0.7379629629629629,30.13124585337937,528.2445983369835,None,528.2445983369835,None,,,,,,,013,001,2021_Feb_19_0916,deception_task,2020.2.10,59.959183330216085,
29,Indirect,LIE,Do you use a Apple phone?,,video/V38.mp4,,,,,,,,,,0,2,2,2,,,,,,564.6071757622994,565.1070426297374,580.4727401747368,580.972686921712,583.9387624361552,584.4723144709133,589.1718670804985,589.671579320915,590.7215641150251,None,0.375,3.883610485121608,590.7215641150251,None,590.7215641150251,None,,,,,,,013,001,2021_Feb_19_0916,deception_task,2020.2.10,59.959183330216085,
18,Indirect,LIE,Was the last country you visited Thailand?,,video/V23.mp4,,,,,,,,,,0,3,3,3,,,,,,603.1033867704682,603.6034271917306,632.9841642533429,633.4841145290993,636.8169590672478,637.3504078034312,644.4830571655184,644.9829952511936,646.9991187569685,None,0.30092592592592593,1.4479412212967873,646.9991187569685,None,646.9991187569685,None,,,,,,,013,001,2021_Feb_19_0916,deception_task,2020.2.10,59.959183330216085,
1,Direct,LIE,Which primary school are you from?,,video/V26.mp4,,,,,,,,,,0,4,4,4,,,,,,651.2986858668737,651.7986881127581,678.529448336456,679.0293774390593,682.279074601829,682.8123520300724,688.9781594821252,689.4783641537651,690.7284135576338,None,0,2.1672000531107187,690.7284135576338,None,690.7284135576338,None,,,,,,,013,001,2021_Feb_19_0916,deception_task,2020.2.10,59.959183330216085,
12,Direct,LIE,What was your favourite subject back in secondary school?,,video/V11.mp4,,,,,,,,,,0,5,5,5,,,,,,694.1279755984433,694.6446117465384,735.0572625072673,735.5571245625615,738.140380368568,738.6735846539959,745.8559826998971,746.3559997025877,748.3058195398189,None,0.7324074074074074,2.350464264396578,748.3058195398189,None,748.3058195398189,None,,,,,,,013,001,2021_Feb_19_0916,deception_task,2020.2.10,59.959183330216085,
27,Indirect,LIE,Do you drink alcohol socially?,,video/V37.mp4,,,,,,,,,,0,6,6,6,,,,,,754.2053164583631,754.7050970299169,764.1875818846747,764.6874205213971,768.0204899418168,768.5537972045131,774.0864394446835,774.5861988435499,776.4696983308531,None,0.3231481481481482,1.7985633201897144,776.4696983308531,None,776.4696983308531,None,,,,,,,013,001,2021_Feb_19_0916,deception_task,2020.2.10,59.959183330216085,
9,Indirect,TRUTH,Is your favourite drink MIilo?,,video/V17.mp4,,,,,,,,,,0,7,7,7,,,,,,779.5192510043271,780.0191935808398,798.6175440815277,799.1170096253045,801.833992688451,802.3671501367353,808.9333091233857,809.4332561912015,810.9995204010047,None,0.7824074074074074,2.1664740783162415,810.9995204010047,None,810.9995204010047,None,,,,,,,013,001,2021_Feb_19_0916,deception_task,2020.2.10,59.959183330216085,
5,Direct,LIE,What is your favourite country you visited? ,,video/V7.mp4,,,,,,,,,,0,8,8,8,,,,,,816.1989591261372,816.6987554170191,839.4635633141734,839.9633605675772,843.0793715361506,843.6132610547356,850.678785815835,851.1788538261317,852.2121697505936,None,0.29074074074074074,1.5483310599811375,852.2121697505936,None,852.2121697505936,None,,,,,,,013,001,2021_Feb_19_0916,deception_task,2020.2.10,59.959183330216085,
16,Direct,LIE,"How many siblings do you have? (Eg. 0, 1, 2, 3)",,video/V9.mp4,,,,,,,,,,0,9,9,9,,,,,,857.095003252849,857.5948778195307,883.3258581133559,883.8259312561713,887.0920011885464,887.6252997894771,894.7742677056231,895.2745407079346,896.3078498956747,None,0.29074074074074074,1.0501532149501145,896.3078498956747,None,896.3078498956747,None,,,,,,,013,001,2021_Feb_19_0916,deception_task,2020.2.10,59.959183330216085,
2,Indirect,TRUTH,Are you from Punggol Secondary School?,,video/V24.mp4,,,,,,,,,,0,10,10,10,,,,,,899.3074992592447,899.807333404664,909.9232054660097,910.4231066592038,913.0725451912731,913.6059929654002,920.8220870862715,921.3220331915654,922.5384339988232,None,0.6333333333333333,1.98259136127308,922.5384339988232,None,922.5384339988232,None,,,,,,,013,001,2021_Feb_19_0916,deception_task,2020.2.10,59.959183330216085,
24,Indirect,LIE,Is your mum 46 years old this year?,,video/V4.mp4,,,,,,,,,,0,11,11,11,,,,,,926.8049078206532,927.3046280816197,945.35303998366,945.8527605650015,948.4856110699475,949.0191069645807,956.2018716870807,956.7017584438436,958.5517299566418,None,0.2962962962962963,0.6645714021287858,958.5517299566418,None,958.5517299566418,None,,,,,,,013,001,2021_Feb_19_0916,deception_task,2020.2.10,59.959183330216085,
23,Direct,TRUTH,What course are you studying?,,video/V33.mp4,,,,,,,,,,0,12,12,12,,,,,,961.4512470858172,961.9509497024119,972.7668353659101,973.266577762086,976.0997626706958,976.6332762092352,983.8154997387901,984.3152883304283,985.3488227212802,None,0.9981481481481482,2.733966318424791,985.3488227212802,None,985.3488227212802,None,,,,,,,013,001,2021_Feb_19_0916,deception_task,2020.2.10,59.959183330216085,
26,Direct,LIE,How often do you smoke?,,video/V39.mp4,,,,,,,,,,0,13,13,13,,,,,,989.1317328312434,989.631802124437,1019.1784996609204,1019.6785455355421,1022.3454202953726,1022.8784170220606,1029.7444344069809,1030.2442008634098,1031.8943207790144,None,0,1.0819604080170393,1031.8943207790144,None,1031.8943207790144,None,,,,,,,013,001,2021_Feb_19_0916,deception_task,2020.2.10,59.959183330216085,
26,Indirect,TRUTH,Do you smoke socially?,,video/V6.mp4,,,,,,,,,,0,14,14,14,,,,,,1034.2107636756264,1034.7273087156937,1042.9432389065623,1043.4431195682846,1046.3094340157695,1046.8426427925006,1051.725518961437,1052.2255516834557,1054.1086286744103,None,1,3.8669425775296986,1054.1086286744103,None,1054.1086286744103,None,,,,,,,013,001,2021_Feb_19_0916,deception_task,2020.2.10,59.959183330216085,
21,Direct,LIE,"Which school in NTU are you from? (Eg. NBS, SSS, SOH)",,video/V31.mp4,,,,,,,,,,0,15,15,15,,,,,,1060.2079649991356,1060.7079075756483,1087.7386307790875,1088.2384254657663,1090.7885141996667,1091.3218397479504,1097.5543313398957,1098.0542806531303,1099.8708871584386,None,0,1.0000368924811482,1099.8708871584386,None,1099.8708871584386,None,,,,,,,013,001,2021_Feb_19_0916,deception_task,2020.2.10,59.959183330216085,
19,Direct,LIE,Which MRT station is closest to your house?,,video/V34.mp4,,,,,,,,,,0,16,16,16,,,,,,1101.9706065212376,1102.4703880548477,1112.7192248268984,1113.2193104811013,1116.069014445413,1116.6025327956304,1123.7850806559436,1124.2850703904405,1125.4181332662702,None,0.7648148148148148,2.4336681007407606,1125.4181332662702,None,1125.4181332662702,None,,,,,,,013,001,2021_Feb_19_0916,deception_task,2020.2.10,59.959183330216085,
5,Direct,TRUTH,What is your favourite country you visited? ,,video/V12.mp4,,,,,,,,,,0,17,17,17,,,,,,1130.90113236662,1131.4174262187444,1148.9990972634405,1149.4990080804564,1152.5655671074055,1153.0987871121615,1160.181348061189,1160.681435319595,1162.2312106299214,None,0.8240740740740741,4.033915502950549,1162.2312106299214,None,1162.2312106299214,None,,,,,,,013,001,2021_Feb_19_0916,deception_task,2020.2.10,59.959183330216085,
25,Indirect,TRUTH,Is your dad 53 years old this year?,,video/V40.mp4,,,,,,,,,,0,18,18,18,,,,,,1167.8807142847218,1168.3807014529593,1182.2458966225386,1182.7456598705612,1185.5287197949365,1186.0621993285604,1193.0779317771085,1193.5779840676114,1194.6608225107193,None,0.9953703703703703,1.9673551935702562,1194.6608225107193,None,1194.6608225107193,None,,,,,,,013,001,2021_Feb_19_0916,deception_task,2020.2.10,59.959183330216085,
27,Indirect,TRUTH,Do you drink alcohol frequently?,,video/V32.mp4,,,,,,,,,,0,19,19,19,,,,,,1198.1944117583334,1198.6941570416093,1212.3594216969796,1212.8593447045423,1216.20907497406,1216.7426664675586,1223.891638874542,1224.3912757267244,1225.541561818216,None,0.9953703703703703,1.6152833900414407,1225.541561818216,None,1225.541561818216,None,,,,,,,013,001,2021_Feb_19_0916,deception_task,2020.2.10,59.959183330216085,
21,Indirect,TRUTH,Are you from School of Social Sciences in NTU?,,video/V8.mp4,,,,,,,,,,0,20,20,20,,,,,,1229.041287532542,1229.5412124646828,1236.7903754925355,1237.2902205451392,1239.873383960221,1240.4068480953574,1247.589360346552,1248.089074832853,1249.8226180137135,None,0.7888888888888889,1.4667187221348286,1249.8226180137135,None,1249.8226180137135,None,,,,,,,013,001,2021_Feb_19_0916,deception_task,2020.2.10,59.959183330216085,
24,Indirect,TRUTH,Is your mum 52 years old this year?,,video/V28.mp4,,,,,,,,,,0,21,21,21,,,,,,1257.1884525413625,1257.6881997492164,1270.7037105238996,1271.2036271151155,1274.4030719352886,1274.9364202609286,1282.1190499258228,1282.61894181557,1284.5685675679706,None,0.999074074074074,2.4522576117888093,1284.5685675679706,None,1284.5685675679706,None,,,,,,,013,001,2021_Feb_19_0916,deception_task,2020.2.10,59.959183330216085,
6,Direct,TRUTH,What CCA (Co-curricular Activity) did you join in secondary school?,,video/V1.mp4,,,,,,,,,,0,22,22,22,,,,,,1287.8020995208062,1288.3017729441635,1301.8006398715079,1302.300501926802,1305.5169948046096,1306.0500961123034,1313.2327520828694,1313.732825867366,1315.365673485212,None,0.999074074074074,1.6818420961499214,1315.365673485212,None,1315.365673485212,None,,,,,,,013,001,2021_Feb_19_0916,deception_task,2020.2.10,59.959183330216085,
22,Indirect,LIE,Are you in your 3rd year in NTU?,,video/V19.mp4,,,,,,,,,,0,23,23,23,,,,,,1317.9655250180513,1318.4654178703204,1332.9974602111615,1333.4971734141,1336.3971778410487,1336.9304857454263,1344.1131320921704,1344.6125113405287,1346.5458666593768,None,0.2898148148148148,2.434063649736345,1346.5458666593768,None,1346.5458666593768,None,,,,,,,013,001,2021_Feb_19_0916,deception_task,2020.2.10,59.959183330216085,
25,Direct,LIE,"How old is your dad? (Eg. 45, 52)",,video/V15.mp4,,,,,,,,,,0,24,24,24,,,,,,1350.0457559828646,1350.5456998422742,1364.9943227679469,1365.494303198997,1368.027406110894,1368.5607576444745,1375.7434213142842,1376.243194507435,1378.0261979708448,None,0.2064814814814815,4.21613037167117,1378.0261979708448,None,1378.0261979708448,None,,,,,,,013,001,2021_Feb_19_0916,deception_task,2020.2.10,59.959183330216085,
15,Indirect,LIE,Are you from Yishun Junior College?,,video/V35.mp4,,,,,,,,,,0,25,25,25,,,,,,1383.1090534161776,1383.6089039226063,1394.3081062161364,1394.8080959506333,1397.7576456731185,1398.2909638429992,1405.473645798862,1405.973586450331,1407.9066370073706,None,0.44537037037037036,3.1668856674805284,1407.9066370073706,None,1407.9066370073706,None,,,,,,,013,001,2021_Feb_19_0916,deception_task,2020.2.10,59.959183330216085,
29,Indirect,TRUTH,Do you use a OPPO phone?,,video/V29.mp4,,,,,,,,,,0,26,26,26,,,,,,1411.9560770797543,1412.4560761172324,1420.2054730099626,1420.7053632955067,1423.571902304422,1424.105216624681,1431.2875835527666,1431.7877144403756,1433.2708848486654,None,0.5518518518518518,2.450534263625741,1433.2708848486654,None,1433.2708848486654,None,,,,,,,013,001,2021_Feb_19_0916,deception_task,2020.2.10,59.959183330216085,
22,Indirect,TRUTH,Are you in your 2nd year in NTU?,,video/V22.mp4,,,,,,,,,,0,27,27,27,,,,,,1436.9036147324368,1437.403708406724,1451.7523681600578,1452.2520929118618,1455.1017763447016,1455.6353027154692,1462.7844156338833,1463.2845093077049,1465.2009243587963,None,0.6212962962962962,1.4496462838724256,1465.2009243587963,None,1465.2009243587963,None,,,,,,,013,001,2021_Feb_19_0916,deception_task,2020.2.10,59.959183330216085,
30,Indirect,LIE,Do you use a Acer laptop?,,video/V36.mp4,,,,,,,,,,0,28,28,28,,,,,,1467.467579754535,1467.9671142711304,1480.8156444206834,1481.3157506058924,1483.8989149839617,1484.432380401995,1491.5816373606212,1492.0811712350696,1493.5647448920645,None,0.3398148148148148,3.9664579103700817,1493.5647448920645,None,1493.5647448920645,None,,,,,,,013,001,2021_Feb_19_0916,deception_task,2020.2.10,59.959183330216085,
15,Indirect,TRUTH,Are you from Singapore Polytechnic?,,video/V27.mp4,,,,,,,,,,0,29,29,29,,,,,,1498.3808615328744,1498.8809285806492,1509.9630926977843,1510.4630513144657,1513.5627539949492,1514.0959958140738,1521.278608476743,1521.7784050884657,1522.9453263645992,None,0.5851851851851851,1.2820959147065878,1522.9453263645992,None,1522.9453263645992,None,,,,,,,013,001,2021_Feb_19_0916,deception_task,2020.2.10,59.959183330216085,
16,Direct,TRUTH,"How many siblings do you have? (Eg. 0, 1, 2, 3)",,video/V3.mp4,,,,,,,,,,0,30,30,30,,,,,,1525.3451681453735,1525.8447427619249,1537.0268286676146,1537.5267025921494,1540.4433928914368,1540.9766183495522,1548.0926931579597,1548.5927255591378,1550.0425672112033,None,0.612037037037037,1.7985508092679083,1550.0425672112033,None,1550.0425672112033,None,,,,,,,013,001,2021_Feb_19_0916,deception_task,2020.2.10,59.959183330216085,
18,Direct,TRUTH,What was the last country you visited?,,video/V16.mp4,,,,,,,,,,0,31,31,31,,,,,,1553.1918629868887,1553.6920676585287,1563.4076433633454,1563.9075827319175,1566.5070220339112,1567.0406472114846,1574.190006185323,1574.6898570121266,1576.3727012937889,None,0.7296296296296296,1.4498676368966699,1576.3727012937889,None,1576.3727012937889,None,,,,,,,013,001,2021_Feb_19_0916,deception_task,2020.2.10,59.959183330216085,
1,Indirect,TRUTH,Are you from Canberra Primary School?,,video/V10.mp4,,,,,,,,,,0,32,32,32,,,,,,1579.4557466539554,1579.955741520971,1588.4384775636718,1588.9384442004375,1592.2383321123198,1592.7715935003944,1599.8709603017196,1600.3707800107077,1601.4205902884714,None,0.7333333333333334,1.7980763432569802,1601.4205902884714,None,1601.4205902884714,None,,,,,,,013,001,2021_Feb_19_0916,deception_task,2020.2.10,59.959183330216085,
19,Indirect,TRUTH,Is the Queenstown station the closest MRT to your house?,,video/V30.mp4,,,,,,,,,,0,33,33,33,,,,,,1604.0871192240156,1604.6203209431842,1612.3029583073221,1612.8029040917754,1615.6021914626472,1616.1358073367737,1623.2519161500968,1623.7516765110195,1624.8349092197604,None,1,4.633544720243663,1624.8349092197604,None,1624.8349092197604,None,,,,,,,013,001,2021_Feb_19_0916,deception_task,2020.2.10,59.959183330216085,
23,Indirect,LIE,Are you studying Business course in NTU?,,video/V13.mp4,,,,,,,,,,0,34,34,34,,,,,,1630.6009759437293,1631.1010872619227,1643.6995240584947,1644.1993254818954,1646.8330042976886,1647.3656048336998,1654.5150995063595,1655.0152634363621,1656.0483522331342,None,0,1.7149648978374898,1656.0483522331342,None,1656.0483522331342,None,,,,,,,013,001,2021_Feb_19_0916,deception_task,2020.2.10,59.959183330216085,
6,Indirect,LIE,Were you in the NPCC CCA during secondary school?,,video/V2.mp4,,,,,,,,,,0,35,35,35,,,,,,1658.714847163763,1659.21478396561,1674.712939354591,1675.2131911837496,1678.179270226974,1678.7130692792125,1685.8952183830552,1686.3954060520045,1687.895293129608,None,0.4583333333333333,2.7166997944004834,1687.895293129608,None,1687.895293129608,None,,,,,,,013,001,2021_Feb_19_0916,deception_task,2020.2.10,59.959183330216085,
2,Indirect,LIE,Are you from Northbrooks Secondary School?,,video/V5.mp4,,,,,,,,,,0,36,36,36,,,,,,1691.561559970025,1692.0616703261621,1708.6098191705532,1709.109759180341,1711.8598140375689,1712.3929166286252,1719.5754506946541,1720.075250835158,1721.9752321643755,None,0.5712962962962963,3.834491214249283,1721.9752321643755,None,1721.9752321643755,None,,,,,,,013,001,2021_Feb_19_0916,deception_task,2020.2.10,59.959183330216085,
20,Direct,LIE,Which floor of the building is your house on?,,video/V18.mp4,,,,,,,,,,0,37,37,37,,,,,,1726.6246001203544,1727.12465369422,1742.489778287243,1742.9896656861529,1745.8896858324297,1746.4230344784446,1753.6054633213207,1754.1054995721206,1755.5718224248849,None,0.3351851851851852,0.9660158450715244,1755.5718224248849,None,1755.5718224248849,None,,,,,,,013,001,2021_Feb_19_0916,deception_task,2020.2.10,59.959183330216085,
30,Direct,TRUTH,What brand of laptop do you mainly use?,,video/V14.mp4,,,,,,,,,,0,38,38,38,,,,,,1758.2050764984451,1758.7217922052369,1763.6876822956838,1764.1872739149258,1767.4207311207429,1767.9539876966737,1775.0700548058376,1775.5695017431863,1777.1861488623545,None,0.6407407407407407,1.9336241506971419,1777.1861488623545,None,1777.1861488623545,None,,,,,,,013,001,2021_Feb_19_0916,deception_task,2020.2.10,59.959183330216085,
12,Direct,TRUTH,What was your favourite subject back in secondary school?,,video/V21.mp4,,,,,,,,,,0,39,39,39,,,,,,1779.9024672238156,1780.402565709781,1791.818030545488,1792.3181508462876,1795.2347150701098,1795.767579626292,1802.917069166433,1803.4172423994169,1805.0169197367504,None,0.6407407407407407,1.433079429436475,1805.0169197367504,None,1805.0169197367504,None,,,,,,,013,001,2021_Feb_19_0916,deception_task,2020.2.10,59.959183330216085,
19,Direct,TRUTH,Which MRT station is closest to your house?,,,bit/B3.mp4,,,,,,,,,,,,,0,0,0,0,,1882.7088279565796,1883.2088334104046,,,,,,,1908.85647769738,None,1,2.649856857955456,1908.85647769738,None,1908.85647769738,None,1896.324567206204,1896.8245707349852,1898.3242842587642,1898.8576592109166,1907.18996255612,1907.6898829974234,013,001,2021_Feb_19_0916,deception_task,2020.2.10,59.959183330216085,
9,Direct,LIE,What is your favourite drink?,,,bit/B4.mp4,,,,,,,,,,,,,0,1,1,1,,1912.622992261313,1913.1228366722353,,,,,,,1947.086122813169,None,0.2953703703703704,3.4161766949109733,1947.086122813169,None,1947.086122813169,None,1936.4039310431108,1936.903700065799,1938.5535511495546,1939.0870521767065,1945.1024936577305,1945.602928344626,013,001,2021_Feb_19_0916,deception_task,2020.2.10,59.959183330216085,
20,Indirect,LIE,Is your house on the 2nd floor of the building?,,,bit/B19.mp4,,,,,,,,,,,,,0,2,2,2,,1952.8855583942495,1953.385352118872,,,,,,,1978.4994039502926,None,0,2.234078599140048,1978.4994039502926,None,1978.4994039502926,None,1967.3173992075026,1967.8172298241407,1969.6170997708105,1970.1505873245187,1976.6497542015277,1977.1495033344254,013,001,2021_Feb_19_0916,deception_task,2020.2.10,59.959183330216085,
1,Direct,TRUTH,Which primary school are you from?,,,bit/B22.mp4,,,,,,,,,,,,,0,3,3,3,,1981.7991561628878,1982.2991362730972,,,,,,,2001.5306385112926,None,1.0,2.4849896766245365,2001.5306385112926,None,2001.5306385112926,None,1989.5152727393433,1990.0151896518655,1992.0646906765178,1992.598377448041,1999.030826822389,1999.5309278750792,013,001,2021_Feb_19_0916,deception_task,2020.2.10,59.959183330216085,
25,Direct,TRUTH,"How old is your dad? (Eg. 45, 52)",,,bit/B40.mp4,,,,,,,,,,,,,0,4,4,4,,2005.163786079269,2005.6635650466196,,,,,,,2023.8618261073716,None,0.6962962962962963,5.434157644864172,2023.8618261073716,None,2023.8618261073716,None,2011.713114512153,2012.2127343621105,2013.9457713169977,2014.4790946198627,2021.6952663748525,2022.1952913971618,013,001,2021_Feb_19_0916,deception_task,2020.2.10,59.959183330216085,
15,Direct,TRUTH,Which polytechnic or junior college are you from?,,,bit/B31.mp4,,,,,,,,,,,,,0,5,5,5,,2030.277506521903,2030.777746481821,,,,,,,2047.2759336298332,None,1,2.467430260963738,2047.2759336298332,None,2047.2759336298332,None,2035.960325139109,2036.4602876054123,2038.5603155796416,2039.093562531285,2044.8261500429362,2045.3261288702488,013,001,2021_Feb_19_0916,deception_task,2020.2.10,59.959183330216085,
12,Indirect,TRUTH,Was your favourite subject History back in secondary school?,,,bit/B34.mp4,,,,,,,,,,,,,0,6,6,6,,2051.791958970949,2052.3087057950906,,,,,,,2075.273068226874,None,1,0.4159312816336751,2075.273068226874,None,2075.273068226874,None,2062.0413587503135,2062.541323141195,2063.9408213431016,2064.4739383701235,2072.823412960861,2073.3232281790115,013,001,2021_Feb_19_0916,deception_task,2020.2.10,59.959183330216085,
27,Direct,TRUTH,How frequently do you drink alcohol?,,,bit/B18.mp4,,,,,,,,,,,,,0,7,7,7,,2081.789170560427,2082.2889812872745,,,,,,,2099.1703288350254,None,0.9944444444444445,2.1518961959518492,2099.1703288350254,None,2099.1703288350254,None,2087.972030240111,2088.471871122252,2090.338177229278,2090.8715634089895,2097.421101326123,2097.921002839692,013,001,2021_Feb_19_0916,deception_task,2020.2.10,59.959183330216085,
30,Direct,LIE,What brand of laptop do you mainly use?,,,bit/B7.mp4,,,,,,,,,,,,,0,8,8,8,,2102.387298745103,2102.887063597329,,,,,,,2127.984767040238,None,0,2.0491468594409525,2127.984767040238,None,2127.984767040238,None,2117.1856901156716,2117.685548321344,2119.218820616603,2119.752144561149,2126.2515183556825,2126.7515517193824,013,001,2021_Feb_19_0916,deception_task,2020.2.10,59.959183330216085,
21,Direct,TRUTH,"Which school in NTU are you from? (Eg. NBS, SSS, SOH)",,,bit/B9.mp4,,,,,,,,,,,,,0,9,9,9,,2131.350962791126,2131.850908254739,,,,,,,2146.316086806357,None,0.7851851851851852,2.449758564122021,2146.316086806357,None,2146.316086806357,None,2135.634097782895,2136.1339492518455,2137.6168633396737,2138.150445208885,2144.616279159207,2145.116193184629,013,001,2021_Feb_19_0916,deception_task,2020.2.10,59.959183330216085,
5,Indirect,LIE,Is your favourite country China?,,,bit/B6.mp4,,,,,,,,,,,,,0,10,10,10,,2149.882336901035,2150.382453993894,,,,,,,2167.614008523058,None,0.7333333333333334,1.9322517602704465,2167.614008523058,None,2167.614008523058,None,2156.965059855487,2157.4650730080903,2159.364670016803,2159.8816090016626,2165.9807185195386,2166.4804099081084,013,001,2021_Feb_19_0916,deception_task,2020.2.10,59.959183330216085,
23,Indirect,TRUTH,Are you studying Public Policy and Global Affairs course in NTU?,,,bit/B29.mp4,,,,,,,,,,,,,0,11,11,11,,2170.663713257294,2171.1634723348543,,,,,,,2187.845137669239,None,1,1.5808453001081944,2187.845137669239,None,2187.845137669239,None,2174.163323161658,2174.662997227162,2176.712865249254,2177.2461895146407,2185.5622217846103,2186.0622288421728,013,001,2021_Feb_19_0916,deception_task,2020.2.10,59.959183330216085,
23,Direct,LIE,What course are you studying?,,,bit/B28.mp4,,,,,,,,,,,,,0,12,12,12,,2192.278120536823,2192.795100905001,,,,,,,2211.4431234179065,None,0.3657407407407407,2.5671390369534492,2211.4431234179065,None,2211.4431234179065,None,2200.3107111281715,2200.810746095609,2202.576882754918,2203.093740897253,2209.292830589693,2209.793093005661,013,001,2021_Feb_19_0916,deception_task,2020.2.10,59.959183330216085,
26,Indirect,LIE,Do you not smoke at all? ,,,bit/B14.mp4,,,,,,,,,,,,,0,13,13,13,,2215.042135732714,2215.542606349103,,,,,,,2230.2244972074404,None,0.0018518518518518268,2.151673559565097,2230.2244972074404,None,2230.2244972074404,None,2220.1923310370184,2220.692050655838,2222.5082298535854,2223.0418431614526,2228.608027170878,2229.1076938575134,013,001,2021_Feb_19_0916,deception_task,2020.2.10,59.959183330216085,
30,Indirect,TRUTH,Do you use a HP laptop?,,,bit/B17.mp4,,,,,,,,,,,,,0,14,14,14,,2233.3909016717225,2233.8907024539076,,,,,,,2250.039011442568,None,0.999074074074074,2.3339596455916762,2250.039011442568,None,2250.039011442568,None,2238.4068359048106,2238.906789067667,2240.7900287052616,2241.323385692667,2248.2225852273405,2248.722740816418,013,001,2021_Feb_19_0916,deception_task,2020.2.10,59.959183330216085,
6,Direct,LIE,What CCA (Co-curricular Activity) did you join in secondary school?,,,bit/B11.mp4,,,,,,,,,,,,,0,15,15,15,,2253.32216472039,2253.8221130711026,,,,,,,2272.703475055285,None,0.0,2.750806175172329,2272.703475055285,None,2272.703475055285,None,2259.621386968065,2260.1215855446644,2261.5043895333074,2262.037938360125,2270.35365688568,2270.8536106902175,013,001,2021_Feb_19_0916,deception_task,2020.2.10,59.959183330216085,
20,Direct,TRUTH,Which floor of the building is your house on?,,,bit/B15.mp4,,,,,,,,,,,,,0,16,16,16,,2276.3698163218796,2276.8693739357404,,,,,,,2288.618367901072,None,1,1.3654059362597764,2288.618367901072,None,2288.618367901072,None,2277.936259860173,2278.4360696244985,2280.5693901041523,2281.1027204650454,2286.668485827744,2287.168474599719,013,001,2021_Feb_19_0916,deception_task,2020.2.10,59.959183330216085,
19,Indirect,LIE,Is the Khatib station the closest MRT to your house?,,,bit/B13.mp4,,,,,,,,,,,,,0,17,17,17,,2291.035121077206,2291.551713916473,,,,,,,2309.5997524051927,None,0.312037037037037,4.233578468672931,2309.5997524051927,None,2309.5997524051927,None,2296.101238680538,2296.6010250262916,2298.500965293031,2299.0343238841742,2307.3830301542766,2307.8833140637726,013,001,2021_Feb_19_0916,deception_task,2020.2.10,59.959183330216085,
24,Direct,TRUTH,"How old is your mum? (Eg. 45, 52)",,,bit/B25.mp4,,,,,,,,,,,,,0,18,18,18,,2315.1658039232716,2315.699105411768,,,,,,,2331.9475700538605,None,1.0,2.8498310018330812,2331.9475700538605,None,2331.9475700538605,None,2321.248484531883,2321.7484563011676,2323.4317901264876,2323.9650483066216,2330.2977921129204,2330.7977491253987,013,001,2021_Feb_19_0916,deception_task,2020.2.10,59.959183330216085,
6,Indirect,TRUTH,Were you in the Basketball CCA during secondary school?,,,bit/B39.mp4,,,,,,,,,,,,,0,19,19,19,,2335.7306004641578,2336.230358258821,,,,,,,2352.3286407492124,None,1,0.9160743593238294,2352.3286407492124,None,2352.3286407492124,None,2339.4468139233068,2339.9468203396536,2341.6463017310016,2342.1799400616437,2350.51225655945,2351.012171226088,013,001,2021_Feb_19_0916,deception_task,2020.2.10,59.959183330216085,
25,Indirect,LIE,Is your dad 49 years old this year?,,,bit/B36.mp4,,,,,,,,,,,,,0,20,20,20,,2356.728239362128,2357.228210810572,,,,,,,2385.108852273319,None,0.35555555555555557,2.483490889891982,2385.108852273319,None,2385.108852273319,None,2374.159931643866,2374.6598799945787,2376.3429581406526,2376.8765775435604,2383.442449733615,2383.9424102748744,013,001,2021_Feb_19_0916,deception_task,2020.2.10,59.959183330216085,
24,Direct,LIE,"How old is your mum? (Eg. 45, 52)",,,bit/B5.mp4,,,,,,,,,,,,,0,21,21,21,,2388.541953517124,2389.04184476519,,,,,,,2405.20680080913,None,0.002777777777777768,3.6663759131915867,2405.20680080913,None,2405.20680080913,None,2393.7578375125304,2394.2576774326153,2396.2575163897127,2396.77448745491,2402.8571850657463,2403.356908534188,013,001,2021_Feb_19_0916,deception_task,2020.2.10,59.959183330216085,
22,Direct,TRUTH,"Which year in NTU are you currently in? (Eg. 1, 2, 3, 4)",,,bit/B30.mp4,,,,,,,,,,,,,0,22,22,22,,2409.9397014235146,2410.4395949169993,,,,,,,2424.5045091924258,None,0.5657407407407408,1.7670830246061087,2424.5045091924258,None,2424.5045091924258,None,2412.222568866797,2412.722777067218,2414.12274107337,2414.655801318586,2422.0219585732557,2422.5218511042185,013,001,2021_Feb_19_0916,deception_task,2020.2.10,59.959183330216085,
9,Direct,TRUTH,What is your favourite drink?,,,bit/B8.mp4,,,,,,,,,,,,,0,23,23,23,,2426.888017983176,2427.3875711057335,,,,,,,2439.553356422577,None,1.0,2.8838530108332634,2439.553356422577,None,2439.553356422577,None,2428.2045420426875,2428.704544608947,2430.637731506955,2431.1711568245664,2437.5533846532926,2438.0536560518667,013,001,2021_Feb_19_0916,deception_task,2020.2.10,59.959183330216085,
2,Direct,LIE,Which secondary school did you attend?,,,bit/B2.mp4,,,,,,,,,,,,,0,24,24,24,,2443.4363702158444,2443.93601733353,,,,,,,2457.5849316758104,None,0.21574074074074073,1.700035416521132,2457.5849316758104,None,2457.5849316758104,None,2445.6695271506906,2446.1693911310285,2448.3025226583704,2448.835768327117,2455.518365591299,2456.018339606002,013,001,2021_Feb_19_0916,deception_task,2020.2.10,59.959183330216085,
18,Direct,LIE,What was the last country you visited?,,,bit/B23.mp4,,,,,,,,,,,,,0,25,25,25,,2460.5180024434812,2461.017739385832,,,,,,,2472.45000365749,None,0.7046296296296296,2.4504761984571815,2472.45000365749,None,2472.45000365749,None,2461.7845240649767,2462.2846016986296,2464.284037728794,2464.8174274377525,2470.900338702835,2471.400287695229,013,001,2021_Feb_19_0916,deception_task,2020.2.10,59.959183330216085,
27,Direct,LIE,How frequently do you drink alcohol?,,,bit/B1.mp4,,,,,,,,,,,,,0,26,26,26,,2475.899617219344,2476.416441677604,,,,,,,2491.4981916393153,None,0.6657407407407407,2.46703920327127,2491.4981916393153,None,2491.4981916393153,None,2480.6491113146767,2481.149159755558,2482.948765682522,2483.4825063487515,2489.1480773696676,2489.6481909337454,013,001,2021_Feb_19_0916,deception_task,2020.2.10,59.959183330216085,
15,Direct,LIE,Which polytechnic or junior college are you from?,,,bit/B38.mp4,,,,,,,,,,,,,0,27,27,27,,2494.964446481783,2495.464606241323,,,,,,,2508.779890401289,None,0.2240740740740741,1.2996174758300185,2508.779890401289,None,2508.779890401289,None,2496.6645313021727,2497.1640796130523,2498.7305500986986,2499.247407920193,2506.9465855122544,2507.4464956880547,013,001,2021_Feb_19_0916,deception_task,2020.2.10,59.959183330216085,
5,Indirect,TRUTH,Is your favourite country Germany?,,,bit/B33.mp4,,,,,,,,,,,,,0,28,28,28,,2511.9296170137823,2512.429303911049,,,,,,,2526.2778706322424,None,0.637962962962963,3.3330036560073495,2526.2778706322424,None,2526.2778706322424,None,2513.6629122146405,2514.162259061821,2515.7956093763933,2516.3290189751424,2524.011687777471,2524.5115652312525,013,001,2021_Feb_19_0916,deception_task,2020.2.10,59.959183330216085,
29,Direct,TRUTH,What brand of handphone do you use?,,,bit/B10.mp4,,,,,,,,,,,,,0,29,29,29,,2530.260973031167,2530.7774439654313,,,,,,,2543.2432509684004,None,0.6611111111111111,2.5681643201969564,2543.2432509684004,None,2543.2432509684004,None,2531.844335343223,2532.344205097761,2533.8770812028088,2534.4108045459725,2541.676442678552,2542.1763807637617,013,001,2021_Feb_19_0916,deception_task,2020.2.10,59.959183330216085,
12,Indirect,LIE,Was your favourite subject Chemistry back in secondary school?,,,bit/B32.mp4,,,,,,,,,,,,,0,30,30,30,,2549.059116421733,2549.558955379296,,,,,,,2571.656662671827,None,0.46574074074074073,1.7001162585802376,2571.656662671827,None,2571.656662671827,None,2559.857828915119,2560.3579197023064,2561.757877612952,2562.2912807953544,2569.4738283352926,2569.973671142012,013,001,2021_Feb_19_0916,deception_task,2020.2.10,59.959183330216085,
18,Indirect,TRUTH,Was the last country you visited Australia?,,,bit/B21.mp4,,,,,,,,,,,,,0,31,31,31,,2574.856189616956,2575.356380173471,,,,,,,2590.6216859556735,None,0.7861111111111111,2.566697613336146,2590.6216859556735,None,2590.6216859556735,None,2577.9729579994455,2578.4729515835643,2580.6225797096267,2581.156011443585,2589.0218745227903,2589.521791756153,013,001,2021_Feb_19_0916,deception_task,2020.2.10,59.959183330216085,
2,Direct,TRUTH,Which secondary school did you attend?,,,bit/B26.mp4,,,,,,,,,,,,,0,32,32,32,,2594.037897297181,2594.537746841088,,,,,,,2608.5364880142733,None,0.8814814814814815,3.6507688984274864,2608.5364880142733,None,2608.5364880142733,None,2595.5879796152003,2596.087847123854,2597.8039033901878,2598.337416607421,2606.6535390228964,2607.1533545618877,013,001,2021_Feb_19_0916,deception_task,2020.2.10,59.959183330216085,
1,Indirect,LIE,Are you from Tampines Primary School?,,,bit/B27.mp4,,,,,,,,,,,,,0,33,33,33,,2613.6193720111623,2614.11916894326,,,,,,,2627.7178338300437,None,0,1.9649620107375085,2627.7178338300437,None,2627.7178338300437,None,2616.069015407469,2616.568954776041,2618.352066991385,2618.885372970719,2625.51802137075,2626.01794020785,013,001,2021_Feb_19_0916,deception_task,2020.2.10,59.959183330216085,
16,Indirect,LIE,Do you have 3 siblings?,,,bit/B35.mp4,,,,,,,,,,,,,0,34,34,34,,2630.4509660629556,2630.951022203546,,,,,,,2644.549461245537,None,0.012962962962962954,1.4654060006141663,2644.549461245537,None,2644.549461245537,None,2632.0509147988632,2632.5507739670575,2634.0341679747216,2634.566897473298,2642.8996489788406,2643.399551775772,013,001,2021_Feb_19_0916,deception_task,2020.2.10,59.959183330216085,
26,Direct,TRUTH,How often do you smoke?,,,bit/B37.mp4,,,,,,,,,,,,,0,35,35,35,,2646.7992931450717,2647.299044523388,,,,,,,2658.5650740349665,None,0.9935185185185185,2.035143212415278,2658.5650740349665,None,2658.5650740349665,None,2648.2325666593388,2648.7325259177014,2650.9154391717166,2651.4322360409424,2656.314976190217,2656.8148600598797,013,001,2021_Feb_19_0916,deception_task,2020.2.10,59.959183330216085,
22,Direct,LIE,"Which year in NTU are you currently in? (Eg. 1, 2, 3, 4)",,,bit/B12.mp4,,,,,,,,,,,,,0,36,36,36,,2662.331346393097,2662.83110097982,,,,,,,2681.329157240689,None,0.0009259259259259411,2.55065847793594,2681.329157240689,None,2681.329157240689,None,2671.146784217097,2671.6466578212567,2673.3800566410646,2673.913309046533,2679.7127959560603,2680.212758421898,013,001,2021_Feb_19_0916,deception_task,2020.2.10,59.959183330216085,
21,Indirect,LIE,Are you from Nanyang Business School in NTU?,,,bit/B24.mp4,,,,,,,,,,,,,0,37,37,37,,2685.2787124165334,2685.778666221071,,,,,,,2698.3442307617515,None,0.0009259259259259411,0.533487232401967,2698.3442307617515,None,2698.3442307617515,None,2687.0784909348004,2687.5784841980785,2689.5449087447487,2690.0783539526165,2696.2444292739965,2696.744360943325,013,001,2021_Feb_19_0916,deception_task,2020.2.10,59.959183330216085,
16,Indirect,TRUTH,Do you have 1 sibling?,,,bit/B16.mp4,,,,,,,,,,,,,0,38,38,38,,2701.677213886287,2702.1937586055137,,,,,,,2715.1090543786995,None,0.9962962962962962,2.8008573753759265,2715.1090543786995,None,2715.1090543786995,None,2703.11042291997,2703.610211831983,2705.459957500454,2705.993573695421,2713.392824879382,2713.892563105095,013,001,2021_Feb_19_0916,deception_task,2020.2.10,59.959183330216085,
29,Direct,LIE,What brand of handphone do you use?,,,bit/B20.mp4,,,,,,,,,,,,,0,39,39,39,,2719.7086264928803,2720.2084096306935,,,,,,,2743.955990784336,None,0.6564814814814814,2.9530204785987735,2743.955990784336,None,2743.955990784336,None,2732.940530696418,2733.4406157089397,2735.356720544398,2735.8734587072395,2741.5898322463036,2742.089882933069,013,001,2021_Feb_19_0916,deception_task,2020.2.10,59.959183330216085,
