item,style,condition,question,respond,video,bitalino,trials_3.thisRepN,trials_3.thisTrialN,trials_3.thisN,trials_3.thisIndex,Trialsloop.thisRepN,Trialsloop.thisTrialN,Trialsloop.thisN,Trialsloop.thisIndex,trials_2.thisRepN,trials_2.thisTrialN,trials_2.thisN,trials_2.thisIndex,trials.thisRepN,trials.thisTrialN,trials.thisN,trials.thisIndex,IDRESPONSE.text,sensor2.started,sensor2.stopped,sensor3.started,sensor3.stopped,sensor.started,sensor.stopped,sensor4.started,sensor4.stopped,textsubjresp.started,textsubjresp.stopped,SubjectiveResponse.response,SubjectiveResponse.rt,SubjectiveResponse.started,SubjectiveResponse.stopped,textsubjcon.started,textsubjcon.stopped,sensor5.started,sensor5.stopped,sensor1.started,sensor1.stopped,sensor6.started,sensor6.stopped,participant,session,date,expName,psychopyVersion,frameRate,
1,directx,TRUTH ,What is your favourite song?,"My favourite song is "Perfect" by Ed Sheeran",,,0,0,0,0,,,,,,,,,,,,,ID 018 ,,,,,,,,,,,,,,,,,,,,,,,018,001,2021_Feb_19_1208,deception_task,2020.2.10,59.95295598799748,
2,indirectx,LIE,What is your favourite tv-show/tv-drama?,"My favourite drama is F.R.I.E.N.D.S",,,0,1,1,1,,,,,,,,,,,,,,,,,,,,,,,,,,,,,,,,,,,,018,001,2021_Feb_19_1208,deception_task,2020.2.10,59.95295598799748,
3,directx,TRUTH ,Is George Washington your role model in life?,""No, my role model is Lee Kuan Yew"",,,0,2,2,2,,,,,,,,,,,,,,,,,,,,,,,,,,,,,,,,,,,,018,001,2021_Feb_19_1208,deception_task,2020.2.10,59.95295598799748,
4,indirectx,LIE,Is MacDonalds your favourite restaurant?,""Yes, MacDonalds is my favourite restaurant"",,,0,3,3,3,,,,,,,,,,,,,,,,,,,,,,,,,,,,,,,,,,,,018,001,2021_Feb_19_1208,deception_task,2020.2.10,59.95295598799748,
5,directx,TRUTH ,Who is your favourite celebrity?,"My favourite celebrity is Chris Hemsworth",,,0,4,4,4,,,,,,,,,,,,,,,,,,,,,,,,,,,,,,,,,,,,018,001,2021_Feb_19_1208,deception_task,2020.2.10,59.95295598799748,
1,directx,TRUTH ,What is your favourite song?,"My favourite song is "Perfect" by Ed Sheeran",,,,,,,0,0,0,0,,,,,,,,,,,,,,,,,,,,,,,,,,,,,,,,018,001,2021_Feb_19_1208,deception_task,2020.2.10,59.95295598799748,
2,indirectx,LIE,What is your favourite tv-show/tv-drama?,"My favourite drama is F.R.I.E.N.D.S",,,,,,,0,1,1,1,,,,,,,,,,,,,,,,,,,,,,,,,,,,,,,,018,001,2021_Feb_19_1208,deception_task,2020.2.10,59.95295598799748,
3,directx,TRUTH ,Is George Washington your role model in life?,""No, my role model is Lee Kuan Yew"",,,,,,,0,2,2,2,,,,,,,,,,,,,,,,,,,,,,,,,,,,,,,,018,001,2021_Feb_19_1208,deception_task,2020.2.10,59.95295598799748,
4,indirectx,LIE,Is MacDonalds your favourite restaurant?,""Yes, MacDonalds is my favourite restaurant"",,,,,,,0,3,3,3,,,,,,,,,,,,,,,,,,,,,,,,,,,,,,,,018,001,2021_Feb_19_1208,deception_task,2020.2.10,59.95295598799748,
5,directx,TRUTH ,Who is your favourite celebrity?,"My favourite celebrity is Chris Hemsworth",,,,,,,0,4,4,4,,,,,,,,,,,,,,,,,,,,,,,,,,,,,,,,018,001,2021_Feb_19_1208,deception_task,2020.2.10,59.95295598799748,
3,Indirect,TRUTH,Is Vera your closest friend back in secondary school?,,video/V4.mp4,,,,,,,,,,0,0,0,0,,,,,,377.9984155590646,378.51555889472365,386.6146863778122,387.1142042125575,390.7639199178666,391.2975107692182,397.67993685323745,398.18027722416446,399.3299335814081,None,1,3.182698958553374,399.3299335814081,None,399.3299335814081,None,,,,,,,018,001,2021_Feb_19_1208,deception_task,2020.2.10,59.95295598799748,
23,Indirect,LIE,Are you studying Communication Studies course in NTU?,,video/V18.mp4,,,,,,,,,,0,1,1,1,,,,,,403.69625572813675,404.2295549707487,413.0786192556843,413.59546167915687,416.4615432242863,416.99489219114184,422.79448528634384,423.2943040332757,425.16038461588323,None,0.002777777777777768,2.1349540036171675,425.16038461588323,None,425.16038461588323,None,,,,,,,018,001,2021_Feb_19_1208,deception_task,2020.2.10,59.95295598799748,
21,Indirect,TRUTH,Are you from Nanyang Business School in NTU?,,video/V40.mp4,,,,,,,,,,0,2,2,2,,,,,,430.910301849246,431.42696943553165,437.9591092998162,438.45951318973675,441.6427337718196,442.17558581661433,446.5418158932589,447.0418688254431,448.858301456552,None,1,1.581117661204189,448.858301456552,None,448.858301456552,None,,,,,,,018,001,2021_Feb_19_1208,deception_task,2020.2.10,59.95295598799748,
3,Direct,LIE,Who is your closest friend back in secondary school?,,video/V14.mp4,,,,,,,,,,0,3,3,3,,,,,,452.27488557016477,452.7911896877922,462.77352119935676,463.2735016304068,465.87357612047344,466.40663315774873,470.8396006273106,471.339512727689,472.47250663116574,None,1,1.4490483086556196,472.47250663116574,None,472.47250663116574,None,,,,,,,018,001,2021_Feb_19_1208,deception_task,2020.2.10,59.95295598799748,
28,Indirect,LIE,Are you a free-thinker?,,video/V30.mp4,,,,,,,,,,0,4,4,4,,,,,,474.67248013289645,475.1891631176695,481.121861434076,481.62160254688933,484.3880869555287,484.92133583221585,488.08774607116356,488.5877431840636,489.6208784971386,None,0.0,5.184558647219092,489.6208784971386,None,489.6208784971386,None,,,,,,,018,001,2021_Feb_19_1208,deception_task,2020.2.10,59.95295598799748,
1,Indirect,LIE,Are you from CHIJ Our Lady Queen of Peace?,,video/V28.mp4,,,,,,,,,,0,5,5,5,,,,,,495.8037064173259,496.33722701342776,504.0365598737262,504.53630483616143,507.46926556900144,508.0025660949759,511.53559907199815,512.0355413276702,513.8018919616006,None,0.2796296296296296,4.966917619574815,513.8018919616006,None,513.8018919616006,None,,,,,,,018,001,2021_Feb_19_1208,deception_task,2020.2.10,59.95295598799748,
10,Indirect,TRUTH,Do you hate eating Vegetables the most?,,video/V2.mp4,,,,,,,,,,0,6,6,6,,,,,,523.984373416286,524.5009380248375,531.8668594900519,532.3667488135397,534.9333851537667,535.4666577698663,538.2994509795681,538.7993659670465,540.1825995096005,None,1.0,3.6501985122449696,540.1825995096005,None,540.1825995096005,None,,,,,,,018,001,2021_Feb_19_1208,deception_task,2020.2.10,59.95295598799748,
2,Direct,TRUTH,Which secondary school did you attend?,,video/V5.mp4,,,,,,,,,,0,7,7,7,,,,,,545.5155726894736,546.0151957469061,552.0814487286843,552.581143966876,555.647825860884,556.180959249381,560.0140655618161,560.5140299526975,562.4305277704261,None,0.312037037037037,0.9989131228066981,562.4305277704261,None,562.4305277704261,None,,,,,,,018,001,2021_Feb_19_1208,deception_task,2020.2.10,59.95295598799748,
15,Direct,LIE,Which polytechnic or junior college are you from?,,video/V12.mp4,,,,,,,,,,0,8,8,8,,,,,,566.629901051987,567.1469224826433,579.4120531068183,579.9117659893818,582.6115434807725,583.1449473053217,585.8778572226875,586.3780076787807,587.6607317235321,None,0.8537037037037036,3.185810095630586,587.6607317235321,None,587.6607317235321,None,,,,,,,018,001,2021_Feb_19_1208,deception_task,2020.2.10,59.95295598799748,
26,Indirect,LIE,Do you smoke socially?,,video/V27.mp4,,,,,,,,,,0,9,9,9,,,,,,591.7941157221794,592.2938526645303,597.5935349422507,598.0934101506136,600.9930260865949,601.5266451686621,604.2927831108682,604.7926320130937,606.6924327309243,None,0.2777777777777778,2.10145746730268,606.6924327309243,None,606.6924327309243,None,,,,,,,018,001,2021_Feb_19_1208,deception_task,2020.2.10,59.95295598799748,
18,Direct,LIE,What was the last country you visited?,,video/V8.mp4,,,,,,,,,,0,10,10,10,,,,,,609.4421988665126,609.9590733698569,613.8753735739738,614.3753896141425,617.5244803973474,618.0578495748341,620.8909571706317,621.3909539622255,623.1077689249068,None,0.8907407407407407,0.7644145945087075,623.1077689249068,None,623.1077689249068,None,,,,,,,018,001,2021_Feb_19_1208,deception_task,2020.2.10,59.95295598799748,
15,Indirect,TRUTH,Are you from Eunoia Junior College?,,video/V6.mp4,,,,,,,,,,0,11,11,11,,,,,,626.4905260768719,627.0075558484532,631.5900404467247,632.0900292186998,634.9394309869967,635.4732544203289,638.5064182849601,639.0062607708387,640.6724114813842,None,1.0,1.3316989541053772,640.6724114813842,None,640.6724114813842,None,,,,,,,018,001,2021_Feb_19_1208,deception_task,2020.2.10,59.95295598799748,
28,Direct,TRUTH,What religion do you practice?,,video/V22.mp4,,,,,,,,,,0,12,12,12,,,,,,642.7223471924663,643.2219477938488,646.8384165475145,647.3384037152864,650.6047893166542,651.1379547850229,653.2379266186617,653.7379096159711,655.1880082306452,None,0.7925925925925925,0.7147672837600112,655.1880082306452,None,655.1880082306452,None,,,,,,,018,001,2021_Feb_19_1208,deception_task,2020.2.10,59.95295598799748,
27,Direct,LIE,How frequently do you drink alcohol?,,video/V19.mp4,,,,,,,,,,0,13,13,13,,,,,,657.6706983987242,658.1876184563152,664.6701812660322,665.1699640830047,668.1697921333835,668.703181842342,671.3029791596346,671.8029194902629,673.419262489304,None,0.25,1.9489924893714488,673.419262489304,None,673.419262489304,None,,,,,,,018,001,2021_Feb_19_1208,deception_task,2020.2.10,59.95295598799748,
20,Direct,LIE,Which floor of the building is your house on?,,video/V26.mp4,,,,,,,,,,0,14,14,14,,,,,,676.1023095175624,676.6359780034982,684.068329853937,684.5680148261599,687.5010932930745,688.0346706709825,690.500648340676,691.0006339047104,692.5507620973513,None,0.8305555555555555,2.001715969759971,692.5507620973513,None,692.5507620973513,None,,,,,,,018,001,2021_Feb_19_1208,deception_task,2020.2.10,59.95295598799748,
6,Indirect,LIE,Were you in the Choir CCA during secondary school?,,video/V15.mp4,,,,,,,,,,0,15,15,15,,,,,,695.367171951104,695.9005321464501,704.0327179497108,704.5328048868105,707.3658662871458,707.8988835453056,711.1319371820427,711.631964771077,712.7154412888922,None,0.7953703703703704,0.7652566991746426,712.7154412888922,None,712.7154412888922,None,,,,,,,018,001,2021_Feb_19_1208,deception_task,2020.2.10,59.95295598799748,
6,Indirect,TRUTH,Were you in the English Drama CCA during secondary school?,,video/V32.mp4,,,,,,,,,,0,16,16,16,,,,,,716.5151498722844,717.048258558847,723.0979106812738,723.5977801145054,726.2640475966036,726.797240333166,730.2302928152494,730.7302556023933,732.1134304380976,None,1,2.300028743688017,732.1134304380976,None,732.1134304380976,None,,,,,,,018,001,2021_Feb_19_1208,deception_task,2020.2.10,59.95295598799748,
20,Direct,TRUTH,Which floor of the building is your house on?,,video/V13.mp4,,,,,,,,,,0,17,17,17,,,,,,735.0965248164721,735.6297817137092,739.6961203496903,740.195998123847,743.1789606530219,743.712433449924,746.2119464725256,746.7119269035757,748.028524747584,None,0.26481481481481484,0.8990182816050947,748.028524747584,None,748.028524747584,None,,,,,,,018,001,2021_Feb_19_1208,deception_task,2020.2.10,59.95295598799748,
1,Direct,TRUTH,Which primary school are you from?,,video/V34.mp4,,,,,,,,,,0,18,18,18,,,,,,751.4449693122879,751.944921833463,757.5277403867804,758.0274372287095,760.6272005410865,761.1605360344984,764.7268246253952,765.2268573469482,766.9100038241595,None,0.9203703703703704,0.5319332680664957,766.9100038241595,None,766.9100038241595,None,,,,,,,018,001,2021_Feb_19_1208,deception_task,2020.2.10,59.95295598799748,
29,Direct,TRUTH,What brand of handphone do you use?,,video/V10.mp4,,,,,,,,,,0,19,19,19,,,,,,770.2430158206262,770.7765203765593,774.7260970463976,775.2259725751355,778.275218562223,778.8089021258056,781.6415593158454,782.1414710953832,783.7914806548506,None,1.0,2.3847672967240214,783.7914806548506,None,783.7914806548506,None,,,,,,,018,001,2021_Feb_19_1208,deception_task,2020.2.10,59.95295598799748,
22,Direct,TRUTH,"Which year in NTU are you currently in? (Eg. 1, 2, 3, 4)",,video/V35.mp4,,,,,,,,,,0,20,20,20,,,,,,786.9244649345055,787.4411822450347,793.8572562835179,794.3572405641899,797.0068693323992,797.5398593218997,800.3400561660528,800.839736005757,802.65661423048,None,0.2962962962962963,0.7824382102116942,802.65661423048,None,802.65661423048,None,,,,,,,018,001,2021_Feb_19_1208,deception_task,2020.2.10,59.95295598799748,
26,Direct,TRUTH,How often do you smoke?,,video/V25.mp4,,,,,,,,,,0,21,21,21,,,,,,807.1060170256533,807.6392434462905,813.3885546848178,813.8885386446491,816.3880859930068,816.92160723079,819.3212424148805,819.8212420940399,821.387823577039,None,0.9046296296296297,0.5663068764843047,821.387823577039,None,821.387823577039,None,,,,,,,018,001,2021_Feb_19_1208,deception_task,2020.2.10,59.95295598799748,
22,Direct,LIE,"Which year in NTU are you currently in? (Eg. 1, 2, 3, 4)",,video/V9.mp4,,,,,,,,,,0,22,22,22,,,,,,824.4708086261526,824.9874486234039,830.5371276931837,831.0367555632256,834.2202061600983,834.7531887716614,837.4528421130963,837.9526265338063,839.0525666079484,None,0.2185185185185185,1.6980243092402816,839.0525666079484,None,839.0525666079484,None,,,,,,,018,001,2021_Feb_19_1208,deception_task,2020.2.10,59.95295598799748,
16,Indirect,LIE,Do you have 0 siblings?,,video/V36.mp4,,,,,,,,,,0,23,23,23,,,,,,841.469100676477,841.9688122756779,853.7345123235136,854.2346435314976,856.934366166126,857.467125819996,859.8339949338697,860.3338441569358,862.1670900182799,None,0.20092592592592595,0.8156902953051031,862.1670900182799,None,862.1670900182799,None,,,,,,,018,001,2021_Feb_19_1208,deception_task,2020.2.10,59.95295598799748,
8,Direct,TRUTH,What is your favourite food?,,video/V23.mp4,,,,,,,,,,0,24,24,24,,,,,,865.1168078407645,865.650081099011,868.3332760166377,868.8329953150824,871.8994436655194,872.4328583967872,874.7323684040457,875.2320549804717,876.548939621076,None,0.9972222222222222,0.8312222426757216,876.548939621076,None,876.548939621076,None,,,,,,,018,001,2021_Feb_19_1208,deception_task,2020.2.10,59.95295598799748,
9,Indirect,LIE,Is your favourite drink Mocha?,,video/V1.mp4,,,,,,,,,,0,25,25,25,,,,,,879.5318408771418,880.0486720725894,887.8641326734796,888.3640126935206,891.0471614161506,891.5807891599834,894.4138765451498,894.9137703599408,896.3968207887374,None,0.7953703703703704,4.150591815356165,896.3968207887374,None,896.3968207887374,None,,,,,,,018,001,2021_Feb_19_1208,deception_task,2020.2.10,59.95295598799748,
21,Direct,LIE,"Which school in NTU are you from? (Eg. NBS, SSS, SOH)",,video/V21.mp4,,,,,,,,,,0,26,26,26,,,,,,901.2464561010711,901.7631493513472,912.5120294317603,913.0118385544047,915.6950751766562,916.2280581090599,918.5611252835952,919.0612827972509,920.4611438256688,None,0.2518518518518519,0.9495250205509365,920.4611438256688,None,920.4611438256688,None,,,,,,,018,001,2021_Feb_19_1208,deception_task,2020.2.10,59.95295598799748,
2,Indirect,LIE,Are you from Anderson Secondary School?,,video/V17.mp4,,,,,,,,,,0,27,27,27,,,,,,924.0275774192996,924.5442366646603,927.3941244482994,927.8936942527071,930.7435435401276,931.2770038251765,934.076683215797,934.5931355440989,936.0764698823914,None,0.11203703703703705,0.6659986502490938,936.0764698823914,None,936.0764698823914,None,,,,,,,018,001,2021_Feb_19_1208,deception_task,2020.2.10,59.95295598799748,
18,Indirect,TRUTH,Was the last country you visited Japan?,,video/V7.mp4,,,,,,,,,,0,28,28,28,,,,,,938.5092330011539,939.0427471813746,943.4087966461666,943.9088899996132,946.4919988787733,947.0253581111319,950.1251384261996,950.6248253234662,951.6911950772628,None,0.8546296296296296,0.7315866095013916,951.6911950772628,None,951.6911950772628,None,,,,,,,018,001,2021_Feb_19_1208,deception_task,2020.2.10,59.95295598799748,
9,Direct,TRUTH,What is your favourite drink?,,video/V24.mp4,,,,,,,,,,0,29,29,29,,,,,,954.6909069968387,955.2078039566986,958.2406357908621,958.7404513298534,961.7906780084595,962.3238588753156,964.8235707953572,965.3232541638426,966.6068049152382,None,0.8546296296296296,1.5150770503096282,966.6068049152382,None,966.6068049152382,None,,,,,,,018,001,2021_Feb_19_1208,deception_task,2020.2.10,59.95295598799748,
5,Indirect,LIE,Is your favourite country India?,,video/V33.mp4,,,,,,,,,,0,30,30,30,,,,,,968.7896568961442,969.3230498130433,978.1050488455221,978.6052762940526,981.2881558635272,981.8215782945044,984.5546354600228,985.0547984275036,986.971049869433,None,0.11388888888888887,1.8336128587834537,986.971049869433,None,986.971049869433,None,,,,,,,018,001,2021_Feb_19_1208,deception_task,2020.2.10,59.95295598799748,
19,Direct,TRUTH,Which MRT station is closest to your house?,,video/V20.mp4,,,,,,,,,,0,31,31,31,,,,,,989.5042855935171,990.0042708362453,996.1534671634436,996.653594200965,999.953124418389,1000.4864660073072,1003.7527486314066,1004.2525186161511,1006.0358537887223,None,1,1.0000118697062135,1006.0358537887223,None,1006.0358537887223,None,,,,,,,018,001,2021_Feb_19_1208,deception_task,2020.2.10,59.95295598799748,
16,Direct,TRUTH,"How many siblings do you have? (Eg. 0, 1, 2, 3)",,video/V29.mp4,,,,,,,,,,0,32,32,32,,,,,,1009.4857820575126,1009.9853935665451,1015.801758508198,1016.3013594304211,1019.4843676416203,1020.0178869548254,1022.5176768293604,1023.0175334308296,1024.5172921875492,None,0.2462962962962963,1.0506421173922718,1024.5172921875492,None,1024.5172921875492,None,,,,,,,018,001,2021_Feb_19_1208,deception_task,2020.2.10,59.95295598799748,
29,Direct,LIE,What brand of handphone do you use?,,video/V3.mp4,,,,,,,,,,0,33,33,33,,,,,,1028.633833442349,1029.1336117680185,1034.083020979073,1034.5827970593236,1037.6657211566344,1038.1990948254243,1040.8991183722392,1041.3991536605172,1042.5823383126408,None,0.23981481481481481,1.6147983372211456,1042.5823383126408,None,1042.5823383126408,None,,,,,,,018,001,2021_Feb_19_1208,deception_task,2020.2.10,59.95295598799748,
23,Direct,TRUTH,What course are you studying?,,video/V11.mp4,,,,,,,,,,0,34,34,34,,,,,,1044.915392334573,1045.415354159195,1053.2309488551691,1053.7311159931123,1056.5645886613056,1057.0977416182868,1060.1973756477237,1060.697372760158,1062.0970153226517,None,0.8629629629629629,1.6153555703349411,1062.0970153226517,None,1062.0970153226517,None,,,,,,,018,001,2021_Feb_19_1208,deception_task,2020.2.10,59.95295598799748,
27,Direct,TRUTH,How frequently do you drink alcohol?,,video/V37.mp4,,,,,,,,,,0,35,35,35,,,,,,1064.4635899406858,1064.9970136545599,1070.5463298973627,1071.0461149602197,1073.81251050625,1074.345997418277,1077.0785907041281,1077.5787430852652,1078.7954252357595,None,0.15833333333333333,4.26644879905507,1078.7954252357595,None,1078.7954252357595,None,,,,,,,018,001,2021_Feb_19_1208,deception_task,2020.2.10,59.95295598799748,
10,Indirect,LIE,Do you hate eating Ramen the most?,,video/V16.mp4,,,,,,,,,,0,36,36,36,,,,,,1083.6780916005373,1084.2115233344957,1088.7608953970484,1089.2608293117955,1092.5273137199692,1093.0440813964233,1095.8438419499435,1096.3604469797574,1097.893041420728,None,0.9435185185185185,0.8679097956046462,1097.893041420728,None,1097.893041420728,None,,,,,,,018,001,2021_Feb_19_1208,deception_task,2020.2.10,59.95295598799748,
19,Indirect,LIE,Is the Simei station the closest MRT to your house?,,video/V38.mp4,,,,,,,,,,0,37,37,37,,,,,,1100.0599854742177,1100.5765199274756,1107.2260239035822,1107.7258503497578,1110.6087191407569,1111.1421271353029,1114.8083753692918,1115.308356442023,1116.4250584179536,None,0.19166666666666665,1.4821014967747033,1116.4250584179536,None,1116.4250584179536,None,,,,,,,018,001,2021_Feb_19_1208,deception_task,2020.2.10,59.95295598799748,
8,Indirect,LIE,Is your favourite food Chicken?,,video/V39.mp4,,,,,,,,,,0,38,38,38,,,,,,1118.708022422623,1119.2412459561601,1122.4077405664138,1122.9077322254889,1125.4740516133606,1126.0074345851317,1128.5403735674918,1129.0404370864853,1130.1069707698189,None,0.018518518518518545,0.7653946443460882,1130.1069707698189,None,1130.1069707698189,None,,,,,,,018,001,2021_Feb_19_1208,deception_task,2020.2.10,59.95295598799748,
5,Direct,TRUTH,What is your favourite country you visited? ,,video/V31.mp4,,,,,,,,,,0,39,39,39,,,,,,1132.4900176054798,1133.0232995250262,1139.872467749752,1140.3891940428875,1142.9552381825633,1143.4889695458114,1146.1554131479934,1146.6553682358935,1148.0218145330437,None,0.9796296296296296,1.2318535167723894,1148.0218145330437,None,1148.0218145330437,None,,,,,,,018,001,2021_Feb_19_1208,deception_task,2020.2.10,59.95295598799748,
27,Indirect,TRUTH,Do you drink alcohol socially?,,,bit/B20.mp4,,,,,,,,,,,,,0,0,0,0,,1222.497556451708,1223.0307838348672,,,,,,,1238.4127036933787,None,0.9916666666666667,1.9647464319132268,1238.4127036933787,None,1238.4127036933787,None,1227.5638954085298,1228.0638193781488,1229.6469311444089,1230.1798303471878,1235.9131755931303,1236.4126642346382,018,001,2021_Feb_19_1208,deception_task,2020.2.10,59.95295598799748,
29,Indirect,LIE,Do you use a Apple phone?,,,bit/B23.mp4,,,,,,,,,,,,,0,1,1,1,,1241.6957963397726,1242.2289480133913,,,,,,,1258.594062661752,None,0,1.0152355264872313,1258.594062661752,None,1258.594062661752,None,1245.811815649271,1246.3117165216245,1247.7280119135976,1248.2612348054536,1256.594294280745,1257.0940421302803,018,001,2021_Feb_19_1208,deception_task,2020.2.10,59.95295598799748,
20,Indirect,TRUTH,Is your house on the 15th floor of the building?,,,bit/B34.mp4,,,,,,,,,,,,,0,2,2,2,,1261.0772195965983,1261.6104995915666,,,,,,,1281.391698223073,None,1,1.6482050488702953,1281.391698223073,None,1281.391698223073,None,1267.3931001275778,1267.9095925558358,1270.0258091590367,1270.5429072612897,1278.92521625245,1279.4252063077874,018,001,2021_Feb_19_1208,deception_task,2020.2.10,59.95295598799748,
3,Direct,TRUTH,Who is your closest friend back in secondary school?,,,bit/B36.mp4,,,,,,,,,,,,,0,3,3,3,,1283.8079961813055,1284.3414340103045,,,,,,,1298.5399937378243,None,0.9944444444444445,0.9481503842398524,1298.5399937378243,None,1298.5399937378243,None,1288.3739803312346,1288.8741997596808,1290.557262828108,1291.0906474040821,1296.1902429368347,1296.6898140246049,018,001,2021_Feb_19_1208,deception_task,2020.2.10,59.95295598799748,
5,Indirect,TRUTH,Is your favourite country Korea?,,,bit/B13.mp4,,,,,,,,,,,,,0,4,4,4,,1300.8397424216382,1301.3730500051752,,,,,,,1314.9716722252779,None,1,1.448348639998585,1314.9716722252779,None,1314.9716722252779,None,1304.1393955065869,1304.639411225915,1306.605945487041,1307.1391212209128,1313.0716260937043,1313.571995337028,018,001,2021_Feb_19_1208,deception_task,2020.2.10,59.95295598799748,
9,Indirect,TRUTH,Is your favourite drink Green Tea?,,,bit/B4.mp4,,,,,,,,,,,,,0,5,5,5,,1317.15495696757,1317.6715218974277,,,,,,,1329.3201754274778,None,1,0.4004002963192761,1329.3201754274778,None,1329.3201754274778,None,1319.8710594293661,1320.3710575043224,1321.9041568874381,1322.4377458146773,1327.4706504708156,1327.9702424108982,018,001,2021_Feb_19_1208,deception_task,2020.2.10,59.95295598799748,
18,Indirect,LIE,Was the last country you visited Mongolia?,,,bit/B30.mp4,,,,,,,,,,,,,0,6,6,6,,1331.5033536637202,1332.0366952521726,,,,,,,1351.2847678740509,None,0,1.1323834173381329,1351.2847678740509,None,1351.2847678740509,None,1337.9189772964455,1338.4194325143471,1340.4854827490635,1341.0189927588217,1349.3351142117754,1349.8350365781225,018,001,2021_Feb_19_1208,deception_task,2020.2.10,59.95295598799748,
15,Indirect,LIE,Are you from Temasek Polytechnic?,,,bit/B28.mp4,,,,,,,,,,,,,0,7,7,7,,1354.3008394106291,1354.8178390269168,,,,,,,1373.3489879341796,None,0.002777777777777768,0.8334765178151429,1373.3489879341796,None,1373.3489879341796,None,1360.6004867209122,1361.1005034022965,1362.4833096368238,1363.0002903258428,1371.3661710489541,1371.865771971643,018,001,2021_Feb_19_1208,deception_task,2020.2.10,59.95295598799748,
8,Direct,LIE,What is your favourite food?,,,bit/B40.mp4,,,,,,,,,,,,,0,8,8,8,,1377.315574164968,1377.831923515536,,,,,,,1394.463881549891,None,0.002777777777777768,1.0154373105615377,1394.463881549891,None,1394.463881549891,None,1381.6484533497132,1382.1482801167294,1383.8146297242492,1384.3313383730128,1392.6802881313488,1393.1804514196701,018,001,2021_Feb_19_1208,deception_task,2020.2.10,59.95295598799748,
26,Direct,LIE,How often do you smoke?,,,bit/B1.mp4,,,,,,,,,,,,,0,9,9,9,,1397.5297081856988,1398.0295577296056,,,,,,,1412.1953164199367,None,0.002777777777777768,0.7159353238530457,1412.1953164199367,None,1412.1953164199367,None,1400.6966669959947,1401.2130654295906,1403.012833361514,1403.5462099174038,1410.0785515662283,1410.5787122882903,018,001,2021_Feb_19_1208,deception_task,2020.2.10,59.95295598799748,
28,Indirect,TRUTH,Is your religion Catholicisim?,,,bit/B6.mp4,,,,,,,,,,,,,0,10,10,10,,1414.9450267357752,1415.4615874951705,,,,,,,1429.9437383948825,None,0.9907407407407407,1.2488512080162764,1429.9437383948825,None,1429.9437383948825,None,1419.3278063433245,1419.8278393861838,1421.710704647936,1422.244329183828,1428.0099628255703,1428.5102704744786,018,001,2021_Feb_19_1208,deception_task,2020.2.10,59.95295598799748,
19,Indirect,TRUTH,Is the Bukit Batok station the closest MRT to your house?,,,bit/B3.mp4,,,,,,,,,,,,,0,11,11,11,,1432.2265525851399,1432.7597482088022,,,,,,,1449.4583111447282,None,1.0,5.133072500117123,1449.4583111447282,None,1449.4583111447282,None,1437.0095310262404,1437.5094312569126,1439.6925726006739,1440.225860615261,1447.7581393872388,1448.258346625138,018,001,2021_Feb_19_1208,deception_task,2020.2.10,59.95295598799748,
1,Indirect,TRUTH,Are you from Woodlands Primary School?,,,bit/B21.mp4,,,,,,,,,,,,,0,12,12,12,,1455.3575058677234,1455.8574981684797,,,,,,,1471.789413407445,None,0,1.8148010321892798,1471.789413407445,None,1471.789413407445,None,1458.707432467956,1459.2074254103936,1460.8237754669972,1461.356839561835,1469.7063965983689,1470.2061405987479,018,001,2021_Feb_19_1208,deception_task,2020.2.10,59.95295598799748,
29,Indirect,TRUTH,Do you use a Xiaomi phone?,,,bit/B7.mp4,,,,,,,,,,,,,0,13,13,13,,1474.3890041280538,1474.922334488947,,,,,,,1488.4542741728947,None,1,0.9508396666496992,1488.4542741728947,None,1488.4542741728947,None,1477.055587920826,1477.555006307084,1479.6717175864615,1480.2052827742882,1486.4377057142556,1486.9377958597615,018,001,2021_Feb_19_1208,deception_task,2020.2.10,59.95295598799748,
28,Direct,LIE,What religion do you practice?,,,bit/B15.mp4,,,,,,,,,,,,,0,14,14,14,,1490.8540274119005,1491.3875720682554,,,,,,,1509.5188868944533,None,0,1.6312166606076062,1509.5188868944533,None,1509.5188868944533,None,1496.5535790589638,1497.053398447577,1499.1032562041655,1499.6367649305612,1507.9859110200778,1508.4857596014626,018,001,2021_Feb_19_1208,deception_task,2020.2.10,59.95295598799748,
15,Direct,TRUTH,Which polytechnic or junior college are you from?,,,bit/B9.mp4,,,,,,,,,,,,,0,15,15,15,,1511.9353895243257,1512.4519024840556,,,,,,,1524.3004881325178,None,1,1.1819736249744892,1524.3004881325178,None,1524.3004881325178,None,1514.7351385289803,1515.2350833509117,1516.9012513845228,1517.4176960131153,1522.084265369922,1522.584188056644,018,001,2021_Feb_19_1208,deception_task,2020.2.10,59.95295598799748,
10,Direct,TRUTH,What food do you hate the most?,,,bit/B39.mp4,,,,,,,,,,,,,0,16,16,16,,1526.383882845752,1526.9005616600625,,,,,,,1538.3991414699703,None,1,0.8813908561132848,1538.3991414699703,None,1538.3991414699703,None,1529.8999996152706,1530.400056076236,1532.432783008553,1532.949747015722,1536.532806170173,1537.0327108921483,018,001,2021_Feb_19_1208,deception_task,2020.2.10,59.95295598799748,
22,Indirect,TRUTH,Are you in your 3rd year in NTU?,,,bit/B16.mp4,,,,,,,,,,,,,0,17,17,17,,1540.748929483816,1541.2659598970786,,,,,,,1558.897476828657,None,0,0.9321057954803109,1558.897476828657,None,1558.897476828657,None,1545.1985578029417,1545.6984872263856,1547.631249703467,1548.1646673218347,1556.4805186600424,1556.980630619917,018,001,2021_Feb_19_1208,deception_task,2020.2.10,59.95295598799748,
20,Indirect,LIE,Is your house on the 6th floor of the building?,,,bit/B8.mp4,,,,,,,,,,,,,0,18,18,18,,1561.0638219448738,1561.5971805360168,,,,,,,1582.828088649083,None,0.0,2.751477934420109,1582.828088649083,None,1582.828088649083,None,1569.62933355337,1570.1293771821074,1572.079054904636,1572.596093337983,1580.94525931729,1581.4449863145128,018,001,2021_Feb_19_1208,deception_task,2020.2.10,59.95295598799748,
26,Indirect,TRUTH,Do you not smoke at all? ,,,bit/B37.mp4,,,,,,,,,,,,,0,19,19,19,,1586.1774586583488,1586.711055284366,,,,,,,1598.7266353522427,None,1,1.081564859021455,1598.7266353522427,None,1598.7266353522427,None,1588.8443398345262,1589.344141899608,1591.4438994377851,1591.977360685356,1596.9266755809076,1597.426764443051,018,001,2021_Feb_19_1208,deception_task,2020.2.10,59.95295598799748,
2,Indirect,TRUTH,Are you from Singapore Chinese Girls School?,,,bit/B5.mp4,,,,,,,,,,,,,0,20,20,20,,1600.9931364422664,1601.4930257657543,,,,,,,1613.7417521816678,None,1,0.5814150446094573,1613.7417521816678,None,1613.7417521816678,None,1604.259387306869,1604.7592609110288,1606.8088248125277,1607.3259302936494,1611.3585459073074,1611.858347010333,018,001,2021_Feb_19_1208,deception_task,2020.2.10,59.95295598799748,
23,Direct,LIE,What course are you studying?,,,bit/B38.mp4,,,,,,,,,,,,,0,21,21,21,,1616.641385762021,1617.1579680149443,,,,,,,1635.2065640571527,None,0.0009259259259259411,0.9822044740431011,1635.2065640571527,None,1635.2065640571527,None,1621.8574166847393,1622.3574907900766,1624.2575558484532,1624.7904351614416,1633.1065312712453,1633.6064629405737,018,001,2021_Feb_19_1208,deception_task,2020.2.10,59.95295598799748,
6,Direct,LIE,What CCA (Co-curricular Activity) did you join in secondary school?,,,bit/B31.mp4,,,,,,,,,,,,,0,22,22,22,,1637.4223072207533,1637.9222918222658,,,,,,,1656.1543278750032,None,0,0.6153052048757672,1656.1543278750032,None,1656.1543278750032,None,1643.1720531452447,1643.6719431104138,1645.4552490897477,1645.9884200119413,1654.3209392568097,1654.8207182241604,018,001,2021_Feb_19_1208,deception_task,2020.2.10,59.95295598799748,
16,Indirect,TRUTH,Do you have 2 siblings?,,,bit/B12.mp4,,,,,,,,,,,,,0,23,23,23,,1660.020170101896,1660.5536226881668,,,,,,,1674.8689379659481,None,1,0.9647907023318112,1674.8689379659481,None,1674.8689379659481,None,1664.336626793258,1664.836789439898,1666.8028912595473,1667.3198196580634,1673.1858104164712,1673.6858501960523,018,001,2021_Feb_19_1208,deception_task,2020.2.10,59.95295598799748,
18,Direct,TRUTH,What was the last country you visited?,,,bit/B11.mp4,,,,,,,,,,,,,0,24,24,24,,1677.1853025867604,1677.6851489227265,,,,,,,1689.7836851677857,None,1,0.5001693833619356,1689.7836851677857,None,1689.7836851677857,None,1679.7015743036754,1680.2016288400628,1681.568074174691,1682.1013634726405,1687.350910179317,1687.8508004653268,018,001,2021_Feb_19_1208,deception_task,2020.2.10,59.95295598799748,
8,Indirect,TRUTH,Is your favourite food Sushi?,,,bit/B29.mp4,,,,,,,,,,,,,0,25,25,25,,1691.9504591957666,1692.4673365866765,,,,,,,1712.3317294307053,None,1,2.9831306291744113,1712.3317294307053,None,1712.3317294307053,None,1701.4997465666384,1701.9995139851235,1703.6827406627126,1704.216178170871,1710.1489140214399,1710.6487189736217,018,001,2021_Feb_19_1208,deception_task,2020.2.10,59.95295598799748,
10,Direct,LIE,What food do you hate the most?,,,bit/B22.mp4,,,,,,,,,,,,,0,26,26,26,,1716.0314706717618,1716.5481866989285,,,,,,,1732.129876029212,None,0,0.8818088611587882,1732.129876029212,None,1732.129876029212,None,1720.0143821933307,1720.5143648697995,1722.2474313387647,1722.7807504711673,1729.9134161942638,1730.4132785703987,018,001,2021_Feb_19_1208,deception_task,2020.2.10,59.95295598799748,
9,Direct,LIE,What is your favourite drink?,,,bit/B17.mp4,,,,,,,,,,,,,0,27,27,27,,1734.3297532903962,1734.8461648770608,,,,,,,1748.6283365008421,None,0,2.7159487972967327,1748.6283365008421,None,1748.6283365008421,None,1739.1290653627366,1739.6290486813523,1741.6787710590288,1742.195483878255,1746.761610464193,1747.261430815328,018,001,2021_Feb_19_1208,deception_task,2020.2.10,59.95295598799748,
21,Indirect,LIE,Are you from Wee Kim Wee School of Communication and Information in NTU?,,,bit/B10.mp4,,,,,,,,,,,,,0,28,28,28,,1752.1277340347879,1752.660938961897,,,,,,,1775.72575346753,None,0,0.4657235941849649,1775.72575346753,None,1775.72575346753,None,1762.2769701411016,1762.776895394083,1764.7600260237232,1765.2933008852415,1773.6089940676466,1774.1089789899997,018,001,2021_Feb_19_1208,deception_task,2020.2.10,59.95295598799748,
2,Direct,LIE,Which secondary school did you attend?,,,bit/B19.mp4,,,,,,,,,,,,,0,29,29,29,,1778.175161074847,1778.6747793206014,,,,,,,1804.0892823915929,None,0,2.800126909278333,1804.0892823915929,None,1804.0892823915929,None,1792.740351239685,1793.2402601321228,1795.1901268064976,1795.7232056586072,1802.3230340937153,1802.8226892314851,018,001,2021_Feb_19_1208,deception_task,2020.2.10,59.95295598799748,
16,Direct,LIE,"How many siblings do you have? (Eg. 0, 1, 2, 3)",,,bit/B32.mp4,,,,,,,,,,,,,0,30,30,30,,1807.6889549172483,1808.2057440872304,,,,,,,1825.1204159003682,None,0,1.5149115161038935,1825.1204159003682,None,1825.1204159003682,None,1811.8383802967146,1812.354983722791,1814.0714788455516,1814.6048165848479,1822.9205841934308,1823.4204610055313,018,001,2021_Feb_19_1208,deception_task,2020.2.10,59.95295598799748,
27,Indirect,LIE,Do you not drink alcohol at all? ,,,bit/B33.mp4,,,,,,,,,,,,,0,31,31,31,,1827.4536434761249,1827.9871659972705,,,,,,,1848.38445387315,None,0,0.45030392752960324,1848.38445387315,None,1848.38445387315,None,1838.1026591914706,1838.6024256478995,1840.5356898591854,1841.0689701745287,1845.9352621659636,1846.4351453939453,018,001,2021_Feb_19_1208,deception_task,2020.2.10,59.95295598799748,
21,Direct,TRUTH,"Which school in NTU are you from? (Eg. NBS, SSS, SOH)",,,bit/B26.mp4,,,,,,,,,,,,,0,32,32,32,,1852.9176494968124,1853.417614529375,,,,,,,1868.716287885327,None,1,0.7147797951474786,1868.716287885327,None,1868.716287885327,None,1859.1170285525732,1859.6337221241556,1861.7166760554537,1862.2502547167242,1866.5832477863878,1867.082870202139,018,001,2021_Feb_19_1208,deception_task,2020.2.10,59.95295598799748,
6,Direct,TRUTH,What CCA (Co-curricular Activity) did you join in secondary school?,,,bit/B24.mp4,,,,,,,,,,,,,0,33,33,33,,1870.866182276979,1871.3992778109387,,,,,,,1888.2642083186656,None,0,1.13158173346892,1888.2642083186656,None,1888.2642083186656,None,1874.9156688656658,1875.4155145599507,1877.3819753574207,1877.9148893170059,1886.2306928550825,1886.7306200331077,018,001,2021_Feb_19_1208,deception_task,2020.2.10,59.95295598799748,
5,Direct,LIE,What is your favourite country you visited? ,,,bit/B14.mp4,,,,,,,,,,,,,0,34,34,34,,1890.3141652029008,1890.8305485583842,,,,,,,1906.3123629372567,None,0.0,2.516344538424164,1906.3123629372567,None,1906.3123629372567,None,1893.246635749936,1893.746936341282,1895.8799687409773,1896.4133918136358,1904.7459886926226,1905.2458221963607,018,001,2021_Feb_19_1208,deception_task,2020.2.10,59.95295598799748,
19,Direct,LIE,Which MRT station is closest to your house?,,,bit/B2.mp4,,,,,,,,,,,,,0,35,35,35,,1909.5285821710713,1910.0620328322984,,,,,,,1926.9437521896325,None,0,0.647428066469729,1926.9437521896325,None,1926.9437521896325,None,1913.3951920769177,1913.8950088992715,1915.9780241036788,1916.5113429157063,1924.8603051854298,1925.3773846812546,018,001,2021_Feb_19_1208,deception_task,2020.2.10,59.95295598799748,
3,Indirect,LIE,Is Nicole your closest friend back in secondary school?,,,bit/B27.mp4,,,,,,,,,,,,,0,36,36,36,,1929.1101014763117,1929.643381791655,,,,,,,1944.8418587520719,None,0.002777777777777768,0.39867277815937996,1944.8418587520719,None,1944.8418587520719,None,1931.7263963548467,1932.243128422182,1933.8428147421218,1934.35965780681,1942.7085183826275,1943.2086951443925,018,001,2021_Feb_19_1208,deception_task,2020.2.10,59.95295598799748,
22,Indirect,LIE,Are you in your 1st year in NTU?,,,bit/B18.mp4,,,,,,,,,,,,,0,37,37,37,,1947.925122899469,1948.4582710443065,,,,,,,1962.6569241252728,None,0.0,0.9481359482742846,1962.6569241252728,None,1962.6569241252728,None,1950.9578459816985,1951.4577333801426,1953.27387343999,1953.8076025573537,1960.7070202375762,1961.2068479671143,018,001,2021_Feb_19_1208,deception_task,2020.2.10,59.95295598799748,
23,Indirect,TRUTH,Are you studying Biological Sciences course in NTU?,,,bit/B35.mp4,,,,,,,,,,,,,0,38,38,38,,1965.2899456177838,1965.823076118715,,,,,,,1982.1550204865634,None,0.0,7.266696779523045,1982.1550204865634,None,1982.1550204865634,None,1968.6395055414177,1969.1392848300748,1971.0890555847436,1971.622552441433,1979.9551422628574,1980.454981541261,018,001,2021_Feb_19_1208,deception_task,2020.2.10,59.95295598799748,
1,Direct,LIE,Which primary school are you from?,,,bit/B25.mp4,,,,,,,,,,,,,0,39,39,39,,1990.1038978081197,1990.6376317371614,,,,,,,2009.535553518217,None,0,0.8154740747995675,2009.535553518217,None,2009.535553518217,None,1997.3531333371066,1997.8527743597515,1999.285991733428,1999.8196169110015,2007.9188342187554,2008.4186321133748,018,001,2021_Feb_19_1208,deception_task,2020.2.10,59.95295598799748,
