"Participant","Trial","Condition","Item","Phrasing","Answer","Question","Confidence","ConfidenceRT","RT","HeartRate","ECG_Rate_Mean_1.5_2.5s","ECG_Rate_MeanRaw","ECG_Rate_Mean","YONI_Affective","YONI_Cognitive","YONI_Physical","YONI_Total","BES_Cognitive","BES_Affective","BES_Total","HCT_Confidence","HCT_Accuracy","HCT_Awareness","HTT_Mean_Guess","HTT_Mean_NoGuess","HTT_Mean_NoGuessPerturbed","HTT_n_Guess","HTT_n_NoGuess","HTT_n_NoGuessPerturbed","MAIA_Noticing","MAIA_NotDistracting","MAIA_NotWorrying","MAIA_AttentionRegulation","MAIA_EmotionalAwareness","MAIA_SelfRegulation","MAIA_BodyListening","MAIA_Trusting","MAIA_Total","LIE_Ability","LIE_Frequency","LIE_Negativity","LIE_Contextuality","Gender","Age","Handedness","Polyjc","Ethnicity","Religion","Nationality","RaisedinSG"
1,1,"Social",19,"Direct","Truth","Which MRT station is closest to your house?",0.287037037037037,"5.497205173363909",5.66611413878854,117.920909782454,-2.21408737367669,NA,NA,45,31,14,90,37,39,76,0.360740740740741,0.75130691069389,-0.775236333122807,-0.0224202898550725,-0.0515,0.0347708333333333,69,6,48,2.5,2.5,1.8,2.14285714285714,2.6,2,3,3.33333333333333,2.48452380952381,-3.1,-7.7,4.975,10,"Female",20,"Right handed","Junior College","Chinese","Not religious","Singaporean","Yes"
1,2,"Social",18,"Direct","Truth","What was the last country you visited?",0.355555555555556,"4.735541135072708",4.16652316122781,120.539629564108,4.07899656113031,NA,NA,45,31,14,90,37,39,76,0.360740740740741,0.75130691069389,-0.775236333122807,-0.0224202898550725,-0.0515,0.0347708333333333,69,6,48,2.5,2.5,1.8,2.14285714285714,2.6,2,3,3.33333333333333,2.48452380952381,-3.1,-7.7,4.975,10,"Female",20,"Right handed","Junior College","Chinese","Not religious","Singaporean","Yes"
1,3,"Social",14,"Indirect","Lie","Is your favourite flavour Vanilla?",0.301851851851852,"4.499679518863559",3.83279673859943,126.171653876209,3.17557761309546,NA,NA,45,31,14,90,37,39,76,0.360740740740741,0.75130691069389,-0.775236333122807,-0.0224202898550725,-0.0515,0.0347708333333333,69,6,48,2.5,2.5,1.8,2.14285714285714,2.6,2,3,3.33333333333333,2.48452380952381,-3.1,-7.7,4.975,10,"Female",20,"Right handed","Junior College","Chinese","Not religious","Singaporean","Yes"
1,4,"Social",21,"Indirect","Lie","Are you from Nanyang Business School in NTU?",0.315740740740741,"3.76635416271165",3.94975439400878,135.199249718109,2.46546406092952,NA,NA,45,31,14,90,37,39,76,0.360740740740741,0.75130691069389,-0.775236333122807,-0.0224202898550725,-0.0515,0.0347708333333333,69,6,48,2.5,2.5,1.8,2.14285714285714,2.6,2,3,3.33333333333333,2.48452380952381,-3.1,-7.7,4.975,10,"Female",20,"Right handed","Junior College","Chinese","Not religious","Singaporean","Yes"
1,5,"Social",17,"Indirect","Lie","Did you celebrate your 21st birthday at MBS?",0.269444444444444,"2.2662168595707044",4.46599531383254,121.786934709314,5.65079929510695,NA,NA,45,31,14,90,37,39,76,0.360740740740741,0.75130691069389,-0.775236333122807,-0.0224202898550725,-0.0515,0.0347708333333333,69,6,48,2.5,2.5,1.8,2.14285714285714,2.6,2,3,3.33333333333333,2.48452380952381,-3.1,-7.7,4.975,10,"Female",20,"Right handed","Junior College","Chinese","Not religious","Singaporean","Yes"
1,6,"Social",20,"Direct","Truth","Which floor of the building is your house on?",0.315740740740741,"2.502733232686296",3.93290844175499,109.542643658697,-0.083729681674356,NA,NA,45,31,14,90,37,39,76,0.360740740740741,0.75130691069389,-0.775236333122807,-0.0224202898550725,-0.0515,0.0347708333333333,69,6,48,2.5,2.5,1.8,2.14285714285714,2.6,2,3,3.33333333333333,2.48452380952381,-3.1,-7.7,4.975,10,"Female",20,"Right handed","Junior College","Chinese","Not religious","Singaporean","Yes"
1,7,"Social",26,"Direct","Lie","How often do you smoke?",0.321296296296296,"2.4826750905485824",2.86676164541859,112.389479407448,3.21440626014937,NA,NA,45,31,14,90,37,39,76,0.360740740740741,0.75130691069389,-0.775236333122807,-0.0224202898550725,-0.0515,0.0347708333333333,69,6,48,2.5,2.5,1.8,2.14285714285714,2.6,2,3,3.33333333333333,2.48452380952381,-3.1,-7.7,4.975,10,"Female",20,"Right handed","Junior College","Chinese","Not religious","Singaporean","Yes"
1,8,"Social",1,"Indirect","Lie","Are you from Temasek Primary School?",0.333333333333333,"2.200244900188409",3.8998013593955,118.888757476006,-0.867337307545924,NA,NA,45,31,14,90,37,39,76,0.360740740740741,0.75130691069389,-0.775236333122807,-0.0224202898550725,-0.0515,0.0347708333333333,69,6,48,2.5,2.5,1.8,2.14285714285714,2.6,2,3,3.33333333333333,2.48452380952381,-3.1,-7.7,4.975,10,"Female",20,"Right handed","Junior College","Chinese","Not religious","Singaporean","Yes"
1,9,"Social",2,"Direct","Truth","Which secondary school did you attend?",0.268518518518518,"2.950067496742122",3.06631136778742,107.65633547348,0.445238377960962,NA,NA,45,31,14,90,37,39,76,0.360740740740741,0.75130691069389,-0.775236333122807,-0.0224202898550725,-0.0515,0.0347708333333333,69,6,48,2.5,2.5,1.8,2.14285714285714,2.6,2,3,3.33333333333333,2.48452380952381,-3.1,-7.7,4.975,10,"Female",20,"Right handed","Junior College","Chinese","Not religious","Singaporean","Yes"
1,10,"Social",23,"Indirect","Truth","Are you studying Linguistics and Multilingual Studies course in NTU?",0.5,"2.4004926877096295",4.86602797126397,109.940817636157,4.94948681504931,NA,NA,45,31,14,90,37,39,76,0.360740740740741,0.75130691069389,-0.775236333122807,-0.0224202898550725,-0.0515,0.0347708333333333,69,6,48,2.5,2.5,1.8,2.14285714285714,2.6,2,3,3.33333333333333,2.48452380952381,-3.1,-7.7,4.975,10,"Female",20,"Right handed","Junior College","Chinese","Not religious","Singaporean","Yes"
1,11,"Social",27,"Indirect","Truth","Do you drink alcohol socially?",0.507407407407407,"2.5355493476381525",3.39958161010873,103.68492439101,2.48201482710439,NA,NA,45,31,14,90,37,39,76,0.360740740740741,0.75130691069389,-0.775236333122807,-0.0224202898550725,-0.0515,0.0347708333333333,69,6,48,2.5,2.5,1.8,2.14285714285714,2.6,2,3,3.33333333333333,2.48452380952381,-3.1,-7.7,4.975,10,"Female",20,"Right handed","Junior College","Chinese","Not religious","Singaporean","Yes"
1,12,"Social",30,"Indirect","Lie","Do you use a Acer laptop?",0.413888888888889,"2.649663735413924",3.09967701660935,110.650029159741,2.89898407558788,NA,NA,45,31,14,90,37,39,76,0.360740740740741,0.75130691069389,-0.775236333122807,-0.0224202898550725,-0.0515,0.0347708333333333,69,6,48,2.5,2.5,1.8,2.14285714285714,2.6,2,3,3.33333333333333,2.48452380952381,-3.1,-7.7,4.975,10,"Female",20,"Right handed","Junior College","Chinese","Not religious","Singaporean","Yes"
1,13,"Social",16,"Indirect","Truth","Do you have 2 siblings?",0.522222222222222,"2.2009702334180474",3.03332458611112,112.861711121631,7.96655094052571,NA,NA,45,31,14,90,37,39,76,0.360740740740741,0.75130691069389,-0.775236333122807,-0.0224202898550725,-0.0515,0.0347708333333333,69,6,48,2.5,2.5,1.8,2.14285714285714,2.6,2,3,3.33333333333333,2.48452380952381,-3.1,-7.7,4.975,10,"Female",20,"Right handed","Junior College","Chinese","Not religious","Singaporean","Yes"
1,14,"Social",2,"Direct","Lie","Which secondary school did you attend?",0.334259259259259,"2.966867253417149",2.96632092772052,104.989683661388,3.67013728269944,NA,NA,45,31,14,90,37,39,76,0.360740740740741,0.75130691069389,-0.775236333122807,-0.0224202898550725,-0.0515,0.0347708333333333,69,6,48,2.5,2.5,1.8,2.14285714285714,2.6,2,3,3.33333333333333,2.48452380952381,-3.1,-7.7,4.975,10,"Female",20,"Right handed","Junior College","Chinese","Not religious","Singaporean","Yes"
1,15,"Social",7,"Direct","Truth","What is your favourite sport?",0.516666666666667,"2.4176247951108962",3.13297305139713,110.679728507439,3.51851300479599,NA,NA,45,31,14,90,37,39,76,0.360740740740741,0.75130691069389,-0.775236333122807,-0.0224202898550725,-0.0515,0.0347708333333333,69,6,48,2.5,2.5,1.8,2.14285714285714,2.6,2,3,3.33333333333333,2.48452380952381,-3.1,-7.7,4.975,10,"Female",20,"Right handed","Junior College","Chinese","Not religious","Singaporean","Yes"
1,16,"Social",23,"Direct","Lie","What course are you studying?",0.371296296296296,"2.7160979703767225",2.56619619985577,106.102264537612,3.17636472480756,NA,NA,45,31,14,90,37,39,76,0.360740740740741,0.75130691069389,-0.775236333122807,-0.0224202898550725,-0.0515,0.0347708333333333,69,6,48,2.5,2.5,1.8,2.14285714285714,2.6,2,3,3.33333333333333,2.48452380952381,-3.1,-7.7,4.975,10,"Female",20,"Right handed","Junior College","Chinese","Not religious","Singaporean","Yes"
1,17,"Social",26,"Indirect","Truth","Do you smoke regularly?",0.491666666666667,"2.866771911038086",3.28279205493163,104.195326931392,2.90823944713249,NA,NA,45,31,14,90,37,39,76,0.360740740740741,0.75130691069389,-0.775236333122807,-0.0224202898550725,-0.0515,0.0347708333333333,69,6,48,2.5,2.5,1.8,2.14285714285714,2.6,2,3,3.33333333333333,2.48452380952381,-3.1,-7.7,4.975,10,"Female",20,"Right handed","Junior College","Chinese","Not religious","Singaporean","Yes"
1,18,"Social",30,"Indirect","Truth","Do you use a Lenovo laptop?",0.352777777777778,"3.0834630442550406",3.43311600072775,108.647432466372,7.92586891825952,NA,NA,45,31,14,90,37,39,76,0.360740740740741,0.75130691069389,-0.775236333122807,-0.0224202898550725,-0.0515,0.0347708333333333,69,6,48,2.5,2.5,1.8,2.14285714285714,2.6,2,3,3.33333333333333,2.48452380952381,-3.1,-7.7,4.975,10,"Female",20,"Right handed","Junior College","Chinese","Not religious","Singaporean","Yes"
1,19,"Social",29,"Direct","Truth","What brand of handphone do you use?",0.52962962962963,"5.017176378169097",2.69962286518421,99.8768013212773,2.79544873567735,NA,NA,45,31,14,90,37,39,76,0.360740740740741,0.75130691069389,-0.775236333122807,-0.0224202898550725,-0.0515,0.0347708333333333,69,6,48,2.5,2.5,1.8,2.14285714285714,2.6,2,3,3.33333333333333,2.48452380952381,-3.1,-7.7,4.975,10,"Female",20,"Right handed","Junior College","Chinese","Not religious","Singaporean","Yes"
1,20,"Social",22,"Indirect","Truth","Are you in your 1st year in NTU?",0.50462962962963,"2.3000290646450594",3.16671692568343,99.9636243026399,-1.1396078535185,NA,NA,45,31,14,90,37,39,76,0.360740740740741,0.75130691069389,-0.775236333122807,-0.0224202898550725,-0.0515,0.0347708333333333,69,6,48,2.5,2.5,1.8,2.14285714285714,2.6,2,3,3.33333333333333,2.48452380952381,-3.1,-7.7,4.975,10,"Female",20,"Right handed","Junior College","Chinese","Not religious","Singaporean","Yes"
1,21,"Social",7,"Indirect","Lie","Is your favourite sport Hockey?",0.367592592592593,"3.233461376046762",3.06648748810403,110.334529490946,4.55819997554775,NA,NA,45,31,14,90,37,39,76,0.360740740740741,0.75130691069389,-0.775236333122807,-0.0224202898550725,-0.0515,0.0347708333333333,69,6,48,2.5,2.5,1.8,2.14285714285714,2.6,2,3,3.33333333333333,2.48452380952381,-3.1,-7.7,4.975,10,"Female",20,"Right handed","Junior College","Chinese","Not religious","Singaporean","Yes"
1,22,"Social",14,"Direct","Truth","What is your favourite flavour?(E.g. chocolate, vanilla, milktea; it can be a complicated flavour)",0.366666666666667,"2.733399782096967",3.23339208285324,102.297168913072,-1.26287527651712,NA,NA,45,31,14,90,37,39,76,0.360740740740741,0.75130691069389,-0.775236333122807,-0.0224202898550725,-0.0515,0.0347708333333333,69,6,48,2.5,2.5,1.8,2.14285714285714,2.6,2,3,3.33333333333333,2.48452380952381,-3.1,-7.7,4.975,10,"Female",20,"Right handed","Junior College","Chinese","Not religious","Singaporean","Yes"
1,23,"Social",20,"Indirect","Lie","Is your house on the 3rd floor of the building?",0.332407407407407,"2.549293145071715",3.59982426464558,107.753727316291,6.79236355838772,NA,NA,45,31,14,90,37,39,76,0.360740740740741,0.75130691069389,-0.775236333122807,-0.0224202898550725,-0.0515,0.0347708333333333,69,6,48,2.5,2.5,1.8,2.14285714285714,2.6,2,3,3.33333333333333,2.48452380952381,-3.1,-7.7,4.975,10,"Female",20,"Right handed","Junior College","Chinese","Not religious","Singaporean","Yes"
1,24,"Social",19,"Direct","Lie","Which MRT station is closest to your house?",0.362037037037037,"2.432671048445627",3.16629346704576,105.478426496424,-0.351581742387282,NA,NA,45,31,14,90,37,39,76,0.360740740740741,0.75130691069389,-0.775236333122807,-0.0224202898550725,-0.0515,0.0347708333333333,69,6,48,2.5,2.5,1.8,2.14285714285714,2.6,2,3,3.33333333333333,2.48452380952381,-3.1,-7.7,4.975,10,"Female",20,"Right handed","Junior College","Chinese","Not religious","Singaporean","Yes"
1,25,"Social",10,"Indirect","Lie","Do you hate eating Eggplant the most?",0.358333333333333,"3.93473893776536",3.39977088326123,109.886933007012,6.211847061154,NA,NA,45,31,14,90,37,39,76,0.360740740740741,0.75130691069389,-0.775236333122807,-0.0224202898550725,-0.0515,0.0347708333333333,69,6,48,2.5,2.5,1.8,2.14285714285714,2.6,2,3,3.33333333333333,2.48452380952381,-3.1,-7.7,4.975,10,"Female",20,"Right handed","Junior College","Chinese","Not religious","Singaporean","Yes"
1,26,"Social",22,"Indirect","Lie","Are you in your 3rd year in NTU?",0.359259259259259,"3.3327351446496323",3.23275368695613,113.433813100225,4.90364197571351,NA,NA,45,31,14,90,37,39,76,0.360740740740741,0.75130691069389,-0.775236333122807,-0.0224202898550725,-0.0515,0.0347708333333333,69,6,48,2.5,2.5,1.8,2.14285714285714,2.6,2,3,3.33333333333333,2.48452380952381,-3.1,-7.7,4.975,10,"Female",20,"Right handed","Junior College","Chinese","Not religious","Singaporean","Yes"
1,27,"Social",10,"Direct","Truth","What food do you hate the most?",0.388888888888889,"2.583148016827181",2.73278480477165,103.261071754529,0.809145004574034,NA,NA,45,31,14,90,37,39,76,0.360740740740741,0.75130691069389,-0.775236333122807,-0.0224202898550725,-0.0515,0.0347708333333333,69,6,48,2.5,2.5,1.8,2.14285714285714,2.6,2,3,3.33333333333333,2.48452380952381,-3.1,-7.7,4.975,10,"Female",20,"Right handed","Junior College","Chinese","Not religious","Singaporean","Yes"
1,28,"Social",6,"Indirect","Truth","Were you in the Volleyball CCA during secondary school?",0.398148148148148,"2.5507258464349434",4.36596926464699,101.985854552583,-2.34414576365427,NA,NA,45,31,14,90,37,39,76,0.360740740740741,0.75130691069389,-0.775236333122807,-0.0224202898550725,-0.0515,0.0347708333333333,69,6,48,2.5,2.5,1.8,2.14285714285714,2.6,2,3,3.33333333333333,2.48452380952381,-3.1,-7.7,4.975,10,"Female",20,"Right handed","Junior College","Chinese","Not religious","Singaporean","Yes"
1,29,"Social",27,"Direct","Lie","How frequently do you drink alcohol?",0.337037037037037,"2.9829169751610607",2.90008398599457,97.1096362134337,4.86047580950434,NA,NA,45,31,14,90,37,39,76,0.360740740740741,0.75130691069389,-0.775236333122807,-0.0224202898550725,-0.0515,0.0347708333333333,69,6,48,2.5,2.5,1.8,2.14285714285714,2.6,2,3,3.33333333333333,2.48452380952381,-3.1,-7.7,4.975,10,"Female",20,"Right handed","Junior College","Chinese","Not religious","Singaporean","Yes"
1,30,"Social",15,"Indirect","Lie","Are you from Hwa Chong Institution (College)?",0.425,"2.7493221454788",3.13310297613498,103.920272213584,2.60794519759887,NA,NA,45,31,14,90,37,39,76,0.360740740740741,0.75130691069389,-0.775236333122807,-0.0224202898550725,-0.0515,0.0347708333333333,69,6,48,2.5,2.5,1.8,2.14285714285714,2.6,2,3,3.33333333333333,2.48452380952381,-3.1,-7.7,4.975,10,"Female",20,"Right handed","Junior College","Chinese","Not religious","Singaporean","Yes"
1,31,"Social",17,"Direct","Truth","Where did you celebrate your 21st birthday?",0.385185185185185,"3.9662163462489843",3.49973630078603,97.4879482432027,4.24072364745747,NA,NA,45,31,14,90,37,39,76,0.360740740740741,0.75130691069389,-0.775236333122807,-0.0224202898550725,-0.0515,0.0347708333333333,69,6,48,2.5,2.5,1.8,2.14285714285714,2.6,2,3,3.33333333333333,2.48452380952381,-3.1,-7.7,4.975,10,"Female",20,"Right handed","Junior College","Chinese","Not religious","Singaporean","Yes"
1,32,"Social",21,"Indirect","Truth","Are you from the School of Humanities in NTU?",0.385185185185185,"2.0015953481197357",3.89967368019279,107.15595093176,-0.977144967889885,NA,NA,45,31,14,90,37,39,76,0.360740740740741,0.75130691069389,-0.775236333122807,-0.0224202898550725,-0.0515,0.0347708333333333,69,6,48,2.5,2.5,1.8,2.14285714285714,2.6,2,3,3.33333333333333,2.48452380952381,-3.1,-7.7,4.975,10,"Female",20,"Right handed","Junior College","Chinese","Not religious","Singaporean","Yes"
1,33,"Social",28,"Direct","Lie","What religion do you practice?",0.492592592592593,"1.9817470104899257",2.69978294544853,97.4426154187785,1.74917537728875,NA,NA,45,31,14,90,37,39,76,0.360740740740741,0.75130691069389,-0.775236333122807,-0.0224202898550725,-0.0515,0.0347708333333333,69,6,48,2.5,2.5,1.8,2.14285714285714,2.6,2,3,3.33333333333333,2.48452380952381,-3.1,-7.7,4.975,10,"Female",20,"Right handed","Junior College","Chinese","Not religious","Singaporean","Yes"
1,34,"Social",28,"Direct","Truth","What religion do you practice?",0.526851851851852,"1.8986785525921732",2.3333392146742,103.463428343934,0.012363931074546,NA,NA,45,31,14,90,37,39,76,0.360740740740741,0.75130691069389,-0.775236333122807,-0.0224202898550725,-0.0515,0.0347708333333333,69,6,48,2.5,2.5,1.8,2.14285714285714,2.6,2,3,3.33333333333333,2.48452380952381,-3.1,-7.7,4.975,10,"Female",20,"Right handed","Junior College","Chinese","Not religious","Singaporean","Yes"
1,35,"Social",1,"Indirect","Truth","Are you from Tao Nan Primary School?",0.490740740740741,"2.3158599995076656",3.20006075990386,105.081867834699,4.75202312742937,NA,NA,45,31,14,90,37,39,76,0.360740740740741,0.75130691069389,-0.775236333122807,-0.0224202898550725,-0.0515,0.0347708333333333,69,6,48,2.5,2.5,1.8,2.14285714285714,2.6,2,3,3.33333333333333,2.48452380952381,-3.1,-7.7,4.975,10,"Female",20,"Right handed","Junior College","Chinese","Not religious","Singaporean","Yes"
1,36,"Social",6,"Indirect","Lie","Were you in the Infocomm Club CCA during secondary school?",0.332407407407407,"2.7001419228035957",3.66596464510076,107.570328816605,4.1834432897427,NA,NA,45,31,14,90,37,39,76,0.360740740740741,0.75130691069389,-0.775236333122807,-0.0224202898550725,-0.0515,0.0347708333333333,69,6,48,2.5,2.5,1.8,2.14285714285714,2.6,2,3,3.33333333333333,2.48452380952381,-3.1,-7.7,4.975,10,"Female",20,"Right handed","Junior College","Chinese","Not religious","Singaporean","Yes"
1,37,"Social",18,"Indirect","Lie","Was the last country you visited Malaysia?",0.488888888888889,"2.033594701322727",3.86642384098377,104.231612090664,4.09197806633991,NA,NA,45,31,14,90,37,39,76,0.360740740740741,0.75130691069389,-0.775236333122807,-0.0224202898550725,-0.0515,0.0347708333333333,69,6,48,2.5,2.5,1.8,2.14285714285714,2.6,2,3,3.33333333333333,2.48452380952381,-3.1,-7.7,4.975,10,"Female",20,"Right handed","Junior College","Chinese","Not religious","Singaporean","Yes"
1,38,"Social",16,"Indirect","Lie","Do you have 4 siblings?",0.457407407407407,"5.133766394574195",2.59975785878487,106.374418420234,1.04975541893765,NA,NA,45,31,14,90,37,39,76,0.360740740740741,0.75130691069389,-0.775236333122807,-0.0224202898550725,-0.0515,0.0347708333333333,69,6,48,2.5,2.5,1.8,2.14285714285714,2.6,2,3,3.33333333333333,2.48452380952381,-3.1,-7.7,4.975,10,"Female",20,"Right handed","Junior College","Chinese","Not religious","Singaporean","Yes"
1,39,"Social",29,"Direct","Lie","What brand of handphone do you use?",0.35462962962963,"3.1340660236310214",2.7998593604425,108.569854018939,1.13174638805511,NA,NA,45,31,14,90,37,39,76,0.360740740740741,0.75130691069389,-0.775236333122807,-0.0224202898550725,-0.0515,0.0347708333333333,69,6,48,2.5,2.5,1.8,2.14285714285714,2.6,2,3,3.33333333333333,2.48452380952381,-3.1,-7.7,4.975,10,"Female",20,"Right handed","Junior College","Chinese","Not religious","Singaporean","Yes"
1,40,"Social",15,"Indirect","Truth","Are you from Singapore Polytechnic?",0.517592592592593,"2.6830303465249017",3.26682702486869,96.8474808795732,4.11177763382361,NA,NA,45,31,14,90,37,39,76,0.360740740740741,0.75130691069389,-0.775236333122807,-0.0224202898550725,-0.0515,0.0347708333333333,69,6,48,2.5,2.5,1.8,2.14285714285714,2.6,2,3,3.33333333333333,2.48452380952381,-3.1,-7.7,4.975,10,"Female",20,"Right handed","Junior College","Chinese","Not religious","Singaporean","Yes"
1,41,"Polygraph",30,"Direct","Lie","What brand of laptop do you mainly use?",0.49537037037037,"3.001239899545908",4.06622090167366,90.7106989271686,-9.15716479262765,NA,NA,45,31,14,90,37,39,76,0.360740740740741,0.75130691069389,-0.775236333122807,-0.0224202898550725,-0.0515,0.0347708333333333,69,6,48,2.5,2.5,1.8,2.14285714285714,2.6,2,3,3.33333333333333,2.48452380952381,-3.1,-7.7,4.975,10,"Female",20,"Right handed","Junior College","Chinese","Not religious","Singaporean","Yes"
1,42,"Polygraph",18,"Indirect","Truth","Was the last country you visited Australia?",0.323148148148148,"2.0324317943304777",4.19954138144385,106.341144431287,3.83158471336591,NA,NA,45,31,14,90,37,39,76,0.360740740740741,0.75130691069389,-0.775236333122807,-0.0224202898550725,-0.0515,0.0347708333333333,69,6,48,2.5,2.5,1.8,2.14285714285714,2.6,2,3,3.33333333333333,2.48452380952381,-3.1,-7.7,4.975,10,"Female",20,"Right handed","Junior College","Chinese","Not religious","Singaporean","Yes"
1,43,"Polygraph",7,"Direct","Lie","What is your favourite sport?",0.349074074074074,"2.5994142798008397",3.49967246130109,93.2986544623727,-0.0399598261530656,NA,NA,45,31,14,90,37,39,76,0.360740740740741,0.75130691069389,-0.775236333122807,-0.0224202898550725,-0.0515,0.0347708333333333,69,6,48,2.5,2.5,1.8,2.14285714285714,2.6,2,3,3.33333333333333,2.48452380952381,-3.1,-7.7,4.975,10,"Female",20,"Right handed","Junior College","Chinese","Not religious","Singaporean","Yes"
1,44,"Polygraph",1,"Direct","Truth","Which primary school are you from?",0.498148148148148,"2.217066150624305",3.08302386640571,91.9093903277035,0.752531324788549,NA,NA,45,31,14,90,37,39,76,0.360740740740741,0.75130691069389,-0.775236333122807,-0.0224202898550725,-0.0515,0.0347708333333333,69,6,48,2.5,2.5,1.8,2.14285714285714,2.6,2,3,3.33333333333333,2.48452380952381,-3.1,-7.7,4.975,10,"Female",20,"Right handed","Junior College","Chinese","Not religious","Singaporean","Yes"
1,45,"Polygraph",23,"Direct","Truth","What course are you studying?",0.486111111111111,"2.4001378807006404",4.46619100298267,102.041735885798,5.87857239622051,NA,NA,45,31,14,90,37,39,76,0.360740740740741,0.75130691069389,-0.775236333122807,-0.0224202898550725,-0.0515,0.0347708333333333,69,6,48,2.5,2.5,1.8,2.14285714285714,2.6,2,3,3.33333333333333,2.48452380952381,-3.1,-7.7,4.975,10,"Female",20,"Right handed","Junior College","Chinese","Not religious","Singaporean","Yes"
1,46,"Polygraph",7,"Indirect","Truth","Is your favourite sport Kayaking?",0.381481481481481,"7.3667773647466674",3.3329196057748,99.3557466029917,4.3144033935796,NA,NA,45,31,14,90,37,39,76,0.360740740740741,0.75130691069389,-0.775236333122807,-0.0224202898550725,-0.0515,0.0347708333333333,69,6,48,2.5,2.5,1.8,2.14285714285714,2.6,2,3,3.33333333333333,2.48452380952381,-3.1,-7.7,4.975,10,"Female",20,"Right handed","Junior College","Chinese","Not religious","Singaporean","Yes"
1,47,"Polygraph",2,"Indirect","Truth","Are you from Serangoon Secondary School?",0.689814814814815,"8.182355700060725",4.21630264190026,95.1469641292558,1.32160576617713,NA,NA,45,31,14,90,37,39,76,0.360740740740741,0.75130691069389,-0.775236333122807,-0.0224202898550725,-0.0515,0.0347708333333333,69,6,48,2.5,2.5,1.8,2.14285714285714,2.6,2,3,3.33333333333333,2.48452380952381,-3.1,-7.7,4.975,10,"Female",20,"Right handed","Junior College","Chinese","Not religious","Singaporean","Yes"
1,48,"Polygraph",27,"Indirect","Lie","Do you drink alcohol rarely?",0.412037037037037,"3.7680191249819472",3.83329654799309,97.1149810517676,4.26003567181658,NA,NA,45,31,14,90,37,39,76,0.360740740740741,0.75130691069389,-0.775236333122807,-0.0224202898550725,-0.0515,0.0347708333333333,69,6,48,2.5,2.5,1.8,2.14285714285714,2.6,2,3,3.33333333333333,2.48452380952381,-3.1,-7.7,4.975,10,"Female",20,"Right handed","Junior College","Chinese","Not religious","Singaporean","Yes"
1,49,"Polygraph",23,"Indirect","Lie","Are you studying Sociology course in NTU?",0.337037037037037,"2.551960292388685",4.13312222424429,97.1502799333152,2.1830983182732,NA,NA,45,31,14,90,37,39,76,0.360740740740741,0.75130691069389,-0.775236333122807,-0.0224202898550725,-0.0515,0.0347708333333333,69,6,48,2.5,2.5,1.8,2.14285714285714,2.6,2,3,3.33333333333333,2.48452380952381,-3.1,-7.7,4.975,10,"Female",20,"Right handed","Junior College","Chinese","Not religious","Singaporean","Yes"
1,50,"Polygraph",19,"Indirect","Lie","Is the Canberra station the closest MRT to your house?",0.37037037037037,"1.9001093292608857",4.71634113823529,98.1606079981687,1.0136405052225,NA,NA,45,31,14,90,37,39,76,0.360740740740741,0.75130691069389,-0.775236333122807,-0.0224202898550725,-0.0515,0.0347708333333333,69,6,48,2.5,2.5,1.8,2.14285714285714,2.6,2,3,3.33333333333333,2.48452380952381,-3.1,-7.7,4.975,10,"Female",20,"Right handed","Junior College","Chinese","Not religious","Singaporean","Yes"
1,51,"Polygraph",30,"Direct","Truth","What brand of laptop do you mainly use?",0.519444444444444,"1.430953795555979",3.66639836935792,104.765620591484,5.20310836045657,NA,NA,45,31,14,90,37,39,76,0.360740740740741,0.75130691069389,-0.775236333122807,-0.0224202898550725,-0.0515,0.0347708333333333,69,6,48,2.5,2.5,1.8,2.14285714285714,2.6,2,3,3.33333333333333,2.48452380952381,-3.1,-7.7,4.975,10,"Female",20,"Right handed","Junior College","Chinese","Not religious","Singaporean","Yes"
1,52,"Polygraph",22,"Direct","Truth","Which year in NTU are you currently in? (Eg. 1, 2, 3, 4)",0.503703703703704,"2.252473062253557",3.28305094200186,91.3739593640946,3.27427579318903,NA,NA,45,31,14,90,37,39,76,0.360740740740741,0.75130691069389,-0.775236333122807,-0.0224202898550725,-0.0515,0.0347708333333333,69,6,48,2.5,2.5,1.8,2.14285714285714,2.6,2,3,3.33333333333333,2.48452380952381,-3.1,-7.7,4.975,10,"Female",20,"Right handed","Junior College","Chinese","Not religious","Singaporean","Yes"
1,53,"Polygraph",21,"Direct","Lie","Which school in NTU are you from? (Eg. NBS, SSS, SOH)",0.330555555555556,"2.3834468758432195",3.59949159296229,97.697256270034,-2.11871056727345,NA,NA,45,31,14,90,37,39,76,0.360740740740741,0.75130691069389,-0.775236333122807,-0.0224202898550725,-0.0515,0.0347708333333333,69,6,48,2.5,2.5,1.8,2.14285714285714,2.6,2,3,3.33333333333333,2.48452380952381,-3.1,-7.7,4.975,10,"Female",20,"Right handed","Junior College","Chinese","Not religious","Singaporean","Yes"
1,54,"Polygraph",6,"Direct","Lie","What CCA (Co-curricular Activity) did you join in secondary school?",0.5,"2.5678431971464306",4.36659097881056,94.2121378230225,0.887867504895283,NA,NA,45,31,14,90,37,39,76,0.360740740740741,0.75130691069389,-0.775236333122807,-0.0224202898550725,-0.0515,0.0347708333333333,69,6,48,2.5,2.5,1.8,2.14285714285714,2.6,2,3,3.33333333333333,2.48452380952381,-3.1,-7.7,4.975,10,"Female",20,"Right handed","Junior College","Chinese","Not religious","Singaporean","Yes"
1,55,"Polygraph",26,"Direct","Truth","How often do you smoke?",0.839814814814815,"6.18267938925419",2.69964275485836,91.5903983921787,-0.679491380595479,NA,NA,45,31,14,90,37,39,76,0.360740740740741,0.75130691069389,-0.775236333122807,-0.0224202898550725,-0.0515,0.0347708333333333,69,6,48,2.5,2.5,1.8,2.14285714285714,2.6,2,3,3.33333333333333,2.48452380952381,-3.1,-7.7,4.975,10,"Female",20,"Right handed","Junior College","Chinese","Not religious","Singaporean","Yes"
1,56,"Polygraph",10,"Indirect","Truth","Do you hate eating cheese the most?",0.769444444444444,"4.3333129088860005",4.1825401611859,101.223436308444,-3.68558226794129,NA,NA,45,31,14,90,37,39,76,0.360740740740741,0.75130691069389,-0.775236333122807,-0.0224202898550725,-0.0515,0.0347708333333333,69,6,48,2.5,2.5,1.8,2.14285714285714,2.6,2,3,3.33333333333333,2.48452380952381,-3.1,-7.7,4.975,10,"Female",20,"Right handed","Junior College","Chinese","Not religious","Singaporean","Yes"
1,57,"Polygraph",14,"Direct","Lie","What is your favourite flavour?(E.g. chocolate, vanilla, milktea; it can be a complicated flavour)",0.518518518518518,"2.6335928407497704",4.532735914574,97.433917815528,2.77230354250381,NA,NA,45,31,14,90,37,39,76,0.360740740740741,0.75130691069389,-0.775236333122807,-0.0224202898550725,-0.0515,0.0347708333333333,69,6,48,2.5,2.5,1.8,2.14285714285714,2.6,2,3,3.33333333333333,2.48452380952381,-3.1,-7.7,4.975,10,"Female",20,"Right handed","Junior College","Chinese","Not religious","Singaporean","Yes"
1,58,"Polygraph",28,"Indirect","Lie","Is your religion Catholicism?",0.400925925925926,"2.7003575016278774",4.29958186671138,99.7842746344859,1.08878945392013,NA,NA,45,31,14,90,37,39,76,0.360740740740741,0.75130691069389,-0.775236333122807,-0.0224202898550725,-0.0515,0.0347708333333333,69,6,48,2.5,2.5,1.8,2.14285714285714,2.6,2,3,3.33333333333333,2.48452380952381,-3.1,-7.7,4.975,10,"Female",20,"Right handed","Junior College","Chinese","Not religious","Singaporean","Yes"
1,59,"Polygraph",16,"Direct","Truth","How many siblings do you have? (Eg. 0, 1, 2, 3)",0.790740740740741,"3.186288411146961",3.33320928981993,93.6080880767077,-0.783396551252295,NA,NA,45,31,14,90,37,39,76,0.360740740740741,0.75130691069389,-0.775236333122807,-0.0224202898550725,-0.0515,0.0347708333333333,69,6,48,2.5,2.5,1.8,2.14285714285714,2.6,2,3,3.33333333333333,2.48452380952381,-3.1,-7.7,4.975,10,"Female",20,"Right handed","Junior College","Chinese","Not religious","Singaporean","Yes"
1,60,"Polygraph",16,"Direct","Lie","How many siblings do you have? (Eg. 0, 1, 2, 3)",0.366666666666667,"2.9161064395448193",4.59950667072553,98.2167554884695,-2.43691856240518,NA,NA,45,31,14,90,37,39,76,0.360740740740741,0.75130691069389,-0.775236333122807,-0.0224202898550725,-0.0515,0.0347708333333333,69,6,48,2.5,2.5,1.8,2.14285714285714,2.6,2,3,3.33333333333333,2.48452380952381,-3.1,-7.7,4.975,10,"Female",20,"Right handed","Junior College","Chinese","Not religious","Singaporean","Yes"
1,61,"Polygraph",26,"Indirect","Lie","Do you not smoke at all?",0.353703703703704,"3.3670667280675843",3.26671955618076,95.9281893182718,0.387012528596799,NA,NA,45,31,14,90,37,39,76,0.360740740740741,0.75130691069389,-0.775236333122807,-0.0224202898550725,-0.0515,0.0347708333333333,69,6,48,2.5,2.5,1.8,2.14285714285714,2.6,2,3,3.33333333333333,2.48452380952381,-3.1,-7.7,4.975,10,"Female",20,"Right handed","Junior College","Chinese","Not religious","Singaporean","Yes"
1,62,"Polygraph",6,"Direct","Truth","What CCA (Co-curricular Activity) did you join in secondary school?",0.54537037037037,"2.668140965513885",5.96595553425141,105.939273243739,-0.408635310094908,NA,NA,45,31,14,90,37,39,76,0.360740740740741,0.75130691069389,-0.775236333122807,-0.0224202898550725,-0.0515,0.0347708333333333,69,6,48,2.5,2.5,1.8,2.14285714285714,2.6,2,3,3.33333333333333,2.48452380952381,-3.1,-7.7,4.975,10,"Female",20,"Right handed","Junior College","Chinese","Not religious","Singaporean","Yes"
1,63,"Polygraph",22,"Direct","Lie","Which year in NTU are you currently in? (Eg. 1, 2, 3, 4)",0.477777777777778,"1.7811816290486604",3.99999358400237,95.7677271625883,1.17019069604763,NA,NA,45,31,14,90,37,39,76,0.360740740740741,0.75130691069389,-0.775236333122807,-0.0224202898550725,-0.0515,0.0347708333333333,69,6,48,2.5,2.5,1.8,2.14285714285714,2.6,2,3,3.33333333333333,2.48452380952381,-3.1,-7.7,4.975,10,"Female",20,"Right handed","Junior College","Chinese","Not religious","Singaporean","Yes"
1,64,"Polygraph",20,"Direct","Lie","Which floor of the building is your house on?",0.356481481481482,"2.9829570753499866",4.99999743350782,99.4134924677483,1.45111703179641,NA,NA,45,31,14,90,37,39,76,0.360740740740741,0.75130691069389,-0.775236333122807,-0.0224202898550725,-0.0515,0.0347708333333333,69,6,48,2.5,2.5,1.8,2.14285714285714,2.6,2,3,3.33333333333333,2.48452380952381,-3.1,-7.7,4.975,10,"Female",20,"Right handed","Junior College","Chinese","Not religious","Singaporean","Yes"
1,65,"Polygraph",29,"Indirect","Lie","Do you use a Samsung phone?",0.302777777777778,"2.566338635981083",3.34975272591691,103.301135016916,3.49673636413134,NA,NA,45,31,14,90,37,39,76,0.360740740740741,0.75130691069389,-0.775236333122807,-0.0224202898550725,-0.0515,0.0347708333333333,69,6,48,2.5,2.5,1.8,2.14285714285714,2.6,2,3,3.33333333333333,2.48452380952381,-3.1,-7.7,4.975,10,"Female",20,"Right handed","Junior College","Chinese","Not religious","Singaporean","Yes"
1,66,"Polygraph",27,"Direct","Truth","How frequently do you drink alcohol?",0.550925925925926,"3.2661738720489666",3.43281990045216,98.2245574294743,1.05259988621177,NA,NA,45,31,14,90,37,39,76,0.360740740740741,0.75130691069389,-0.775236333122807,-0.0224202898550725,-0.0515,0.0347708333333333,69,6,48,2.5,2.5,1.8,2.14285714285714,2.6,2,3,3.33333333333333,2.48452380952381,-3.1,-7.7,4.975,10,"Female",20,"Right handed","Junior College","Chinese","Not religious","Singaporean","Yes"
1,67,"Polygraph",20,"Indirect","Truth","Is your house on the 12th floor of the building?",0.656481481481481,"2.434086105786264",4.26612222299445,96.6008087370505,-1.99746804551344,NA,NA,45,31,14,90,37,39,76,0.360740740740741,0.75130691069389,-0.775236333122807,-0.0224202898550725,-0.0515,0.0347708333333333,69,6,48,2.5,2.5,1.8,2.14285714285714,2.6,2,3,3.33333333333333,2.48452380952381,-3.1,-7.7,4.975,10,"Female",20,"Right handed","Junior College","Chinese","Not religious","Singaporean","Yes"
1,68,"Polygraph",2,"Indirect","Lie","Are you from Nanyang Girls' High School?",0.537037037037037,"2.4844407845521346",3.81675567850471,103.795985137499,0.35275758910285,NA,NA,45,31,14,90,37,39,76,0.360740740740741,0.75130691069389,-0.775236333122807,-0.0224202898550725,-0.0515,0.0347708333333333,69,6,48,2.5,2.5,1.8,2.14285714285714,2.6,2,3,3.33333333333333,2.48452380952381,-3.1,-7.7,4.975,10,"Female",20,"Right handed","Junior College","Chinese","Not religious","Singaporean","Yes"
1,69,"Polygraph",15,"Direct","Truth","Which polytechnic or junior college are you from?",0.701851851851852,"2.749000701936893",3.54997035779525,96.5721146385209,3.69178756001331,NA,NA,45,31,14,90,37,39,76,0.360740740740741,0.75130691069389,-0.775236333122807,-0.0224202898550725,-0.0515,0.0347708333333333,69,6,48,2.5,2.5,1.8,2.14285714285714,2.6,2,3,3.33333333333333,2.48452380952381,-3.1,-7.7,4.975,10,"Female",20,"Right handed","Junior College","Chinese","Not religious","Singaporean","Yes"
1,70,"Polygraph",28,"Indirect","Truth","Is your religion a free-thinker?",0.675925925925926,"2.533170280396007",3.63340356748085,92.9199827123008,-0.644318191919012,NA,NA,45,31,14,90,37,39,76,0.360740740740741,0.75130691069389,-0.775236333122807,-0.0224202898550725,-0.0515,0.0347708333333333,69,6,48,2.5,2.5,1.8,2.14285714285714,2.6,2,3,3.33333333333333,2.48452380952381,-3.1,-7.7,4.975,10,"Female",20,"Right handed","Junior College","Chinese","Not religious","Singaporean","Yes"
1,71,"Polygraph",10,"Direct","Lie","What food do you hate the most?",0.689814814814815,"3.933612602064386",3.64950012636837,96.8701575876202,0.445918656909342,NA,NA,45,31,14,90,37,39,76,0.360740740740741,0.75130691069389,-0.775236333122807,-0.0224202898550725,-0.0515,0.0347708333333333,69,6,48,2.5,2.5,1.8,2.14285714285714,2.6,2,3,3.33333333333333,2.48452380952381,-3.1,-7.7,4.975,10,"Female",20,"Right handed","Junior College","Chinese","Not religious","Singaporean","Yes"
1,72,"Polygraph",17,"Direct","Lie","Where did you celebrate your 21st birthday?",0.27037037037037,"4.53323411999736",5.51627620786894,95.3687020246375,2.7325369542552,NA,NA,45,31,14,90,37,39,76,0.360740740740741,0.75130691069389,-0.775236333122807,-0.0224202898550725,-0.0515,0.0347708333333333,69,6,48,2.5,2.5,1.8,2.14285714285714,2.6,2,3,3.33333333333333,2.48452380952381,-3.1,-7.7,4.975,10,"Female",20,"Right handed","Junior College","Chinese","Not religious","Singaporean","Yes"
1,73,"Polygraph",19,"Indirect","Truth","Is the Bedok station the closest MRT to your house?",0.672222222222222,"2.0341580295935273",4.71647266694345,98.871962278383,-2.94168944382535,NA,NA,45,31,14,90,37,39,76,0.360740740740741,0.75130691069389,-0.775236333122807,-0.0224202898550725,-0.0515,0.0347708333333333,69,6,48,2.5,2.5,1.8,2.14285714285714,2.6,2,3,3.33333333333333,2.48452380952381,-3.1,-7.7,4.975,10,"Female",20,"Right handed","Junior College","Chinese","Not religious","Singaporean","Yes"
1,74,"Polygraph",29,"Indirect","Truth","Do you use a Xiaomi phone?",0.689814814814815,"2.5672920594224706",4.01620723551605,92.9357664741368,1.94272104550014,NA,NA,45,31,14,90,37,39,76,0.360740740740741,0.75130691069389,-0.775236333122807,-0.0224202898550725,-0.0515,0.0347708333333333,69,6,48,2.5,2.5,1.8,2.14285714285714,2.6,2,3,3.33333333333333,2.48452380952381,-3.1,-7.7,4.975,10,"Female",20,"Right handed","Junior College","Chinese","Not religious","Singaporean","Yes"
1,75,"Polygraph",14,"Indirect","Truth","Is your favourite flavour Chocolate?",0.705555555555555,"1.9648022511973977",4.46626478736289,89.9346485062475,-0.118312897265724,NA,NA,45,31,14,90,37,39,76,0.360740740740741,0.75130691069389,-0.775236333122807,-0.0224202898550725,-0.0515,0.0347708333333333,69,6,48,2.5,2.5,1.8,2.14285714285714,2.6,2,3,3.33333333333333,2.48452380952381,-3.1,-7.7,4.975,10,"Female",20,"Right handed","Junior College","Chinese","Not religious","Singaporean","Yes"
1,76,"Polygraph",15,"Direct","Lie","Which polytechnic or junior college are you from?",0.538888888888889,"2.6670627500861883",3.36621018697042,95.7636767767057,5.9316999677016,NA,NA,45,31,14,90,37,39,76,0.360740740740741,0.75130691069389,-0.775236333122807,-0.0224202898550725,-0.0515,0.0347708333333333,69,6,48,2.5,2.5,1.8,2.14285714285714,2.6,2,3,3.33333333333333,2.48452380952381,-3.1,-7.7,4.975,10,"Female",20,"Right handed","Junior College","Chinese","Not religious","Singaporean","Yes"
1,77,"Polygraph",17,"Indirect","Truth","Did you not celebrate your 21st birthday?",0.426851851851852,"4.716262541827746",4.83317656803411,94.2465652706599,2.54663217236873,NA,NA,45,31,14,90,37,39,76,0.360740740740741,0.75130691069389,-0.775236333122807,-0.0224202898550725,-0.0515,0.0347708333333333,69,6,48,2.5,2.5,1.8,2.14285714285714,2.6,2,3,3.33333333333333,2.48452380952381,-3.1,-7.7,4.975,10,"Female",20,"Right handed","Junior College","Chinese","Not religious","Singaporean","Yes"
1,78,"Polygraph",18,"Direct","Lie","What was the last country you visited?",0.686111111111111,"3.150607213960029",4.04951578145847,100.44231881429,-0.777430208246173,NA,NA,45,31,14,90,37,39,76,0.360740740740741,0.75130691069389,-0.775236333122807,-0.0224202898550725,-0.0515,0.0347708333333333,69,6,48,2.5,2.5,1.8,2.14285714285714,2.6,2,3,3.33333333333333,2.48452380952381,-3.1,-7.7,4.975,10,"Female",20,"Right handed","Junior College","Chinese","Not religious","Singaporean","Yes"
1,79,"Polygraph",21,"Direct","Truth","Which school in NTU are you from? (Eg. NBS, SSS, SOH)",0.637962962962963,"0.9485536323627457",4.09979058045428,92.4670865031646,1.52357530194388,NA,NA,45,31,14,90,37,39,76,0.360740740740741,0.75130691069389,-0.775236333122807,-0.0224202898550725,-0.0515,0.0347708333333333,69,6,48,2.5,2.5,1.8,2.14285714285714,2.6,2,3,3.33333333333333,2.48452380952381,-3.1,-7.7,4.975,10,"Female",20,"Right handed","Junior College","Chinese","Not religious","Singaporean","Yes"
1,80,"Polygraph",1,"Direct","Lie","Which primary school are you from?",0.351851851851852,"3.6827599104726687",4.28302976908162,94.5489796885423,3.05020747550529,NA,NA,45,31,14,90,37,39,76,0.360740740740741,0.75130691069389,-0.775236333122807,-0.0224202898550725,-0.0515,0.0347708333333333,69,6,48,2.5,2.5,1.8,2.14285714285714,2.6,2,3,3.33333333333333,2.48452380952381,-3.1,-7.7,4.975,10,"Female",20,"Right handed","Junior College","Chinese","Not religious","Singaporean","Yes"
2,1,"Social",6,"Indirect","Lie","Were you in the Swimming CCA during secondary school?",0.525925925925926,"7.802066477946937",6.3152106963098,98.7174197498585,-5.78834482604429,NA,NA,44,34,12,90,36,33,69,0.170740740740741,0.657568185846362,0.80245743497113,0.00726086956521739,0.0195833333333333,-0.0461111111111111,46,24,18,3.25,0.166666666666667,3.8,1.28571428571429,4.2,2,0.333333333333333,4,2.37946428571429,-6.75,-0.525,2.8,1.65,"Female",20,"Right handed","Polytechnic","Chinese","Buddhism","Singaporean","Yes"
2,2,"Social",21,"Indirect","Truth","Are you from School of Humanities in NTU?",0.996296296296296,"7.269354944117367",7.69876504084095,95.1164857631882,2.92587426792799,NA,NA,44,34,12,90,36,33,69,0.170740740740741,0.657568185846362,0.80245743497113,0.00726086956521739,0.0195833333333333,-0.0461111111111111,46,24,18,3.25,0.166666666666667,3.8,1.28571428571429,4.2,2,0.333333333333333,4,2.37946428571429,-6.75,-0.525,2.8,1.65,"Female",20,"Right handed","Polytechnic","Chinese","Buddhism","Singaporean","Yes"
2,3,"Social",29,"Direct","Truth","What brand of handphone do you use?",0.996296296296296,"3.616894778329879",5.26606415770948,96.7447953979985,5.53513141423186,NA,NA,44,34,12,90,36,33,69,0.170740740740741,0.657568185846362,0.80245743497113,0.00726086956521739,0.0195833333333333,-0.0461111111111111,46,24,18,3.25,0.166666666666667,3.8,1.28571428571429,4.2,2,0.333333333333333,4,2.37946428571429,-6.75,-0.525,2.8,1.65,"Female",20,"Right handed","Polytechnic","Chinese","Buddhism","Singaporean","Yes"
2,4,"Social",22,"Direct","Lie","Which year in NTU are you currently in? (Eg. 1, 2, 3, 4)",0,"8.766320478636771",5.19983170717023,96.5106612832179,3.11077594383967,NA,NA,44,34,12,90,36,33,69,0.170740740740741,0.657568185846362,0.80245743497113,0.00726086956521739,0.0195833333333333,-0.0461111111111111,46,24,18,3.25,0.166666666666667,3.8,1.28571428571429,4.2,2,0.333333333333333,4,2.37946428571429,-6.75,-0.525,2.8,1.65,"Female",20,"Right handed","Polytechnic","Chinese","Buddhism","Singaporean","Yes"
2,5,"Social",5,"Direct","Lie","What is your favourite country you visited? ",0.218518518518519,"4.799962658667937",5.69959720107727,95.959886555903,2.01046958424065,NA,NA,44,34,12,90,36,33,69,0.170740740740741,0.657568185846362,0.80245743497113,0.00726086956521739,0.0195833333333333,-0.0461111111111111,46,24,18,3.25,0.166666666666667,3.8,1.28571428571429,4.2,2,0.333333333333333,4,2.37946428571429,-6.75,-0.525,2.8,1.65,"Female",20,"Right handed","Polytechnic","Chinese","Buddhism","Singaporean","Yes"
2,6,"Social",7,"Indirect","Truth","Is your favourite sport Netball?",0.860185185185185,"3.0993507609236985",7.64887552522123,95.6311146698242,4.9058784091566,NA,NA,44,34,12,90,36,33,69,0.170740740740741,0.657568185846362,0.80245743497113,0.00726086956521739,0.0195833333333333,-0.0461111111111111,46,24,18,3.25,0.166666666666667,3.8,1.28571428571429,4.2,2,0.333333333333333,4,2.37946428571429,-6.75,-0.525,2.8,1.65,"Female",20,"Right handed","Polytechnic","Chinese","Buddhism","Singaporean","Yes"
2,7,"Social",30,"Direct","Truth","What brand of laptop do you mainly use?",0.999074074074074,"2.2504388571251184",4.23286404297687,85.5517694298254,-0.210777355456841,NA,NA,44,34,12,90,36,33,69,0.170740740740741,0.657568185846362,0.80245743497113,0.00726086956521739,0.0195833333333333,-0.0461111111111111,46,24,18,3.25,0.166666666666667,3.8,1.28571428571429,4.2,2,0.333333333333333,4,2.37946428571429,-6.75,-0.525,2.8,1.65,"Female",20,"Right handed","Polytechnic","Chinese","Buddhism","Singaporean","Yes"
2,8,"Social",15,"Indirect","Lie","Are you from National Junior College?",0.160185185185185,"4.683856090996414",5.38283799379133,91.2178135509183,-2.27703957951388,NA,NA,44,34,12,90,36,33,69,0.170740740740741,0.657568185846362,0.80245743497113,0.00726086956521739,0.0195833333333333,-0.0461111111111111,46,24,18,3.25,0.166666666666667,3.8,1.28571428571429,4.2,2,0.333333333333333,4,2.37946428571429,-6.75,-0.525,2.8,1.65,"Female",20,"Right handed","Polytechnic","Chinese","Buddhism","Singaporean","Yes"
2,9,"Social",10,"Direct","Truth","What food do you hate the most?",0.900925925925926,"3.9500896320678294",6.23311073938385,89.7025182668962,-4.27726551082728,NA,NA,44,34,12,90,36,33,69,0.170740740740741,0.657568185846362,0.80245743497113,0.00726086956521739,0.0195833333333333,-0.0461111111111111,46,24,18,3.25,0.166666666666667,3.8,1.28571428571429,4.2,2,0.333333333333333,4,2.37946428571429,-6.75,-0.525,2.8,1.65,"Female",20,"Right handed","Polytechnic","Chinese","Buddhism","Singaporean","Yes"
2,10,"Social",23,"Direct","Lie","What course are you studying?",0.486111111111111,"2.3499814574606717",2.19962318614125,87.9732600209041,8.67752685067065,NA,NA,44,34,12,90,36,33,69,0.170740740740741,0.657568185846362,0.80245743497113,0.00726086956521739,0.0195833333333333,-0.0461111111111111,46,24,18,3.25,0.166666666666667,3.8,1.28571428571429,4.2,2,0.333333333333333,4,2.37946428571429,-6.75,-0.525,2.8,1.65,"Female",20,"Right handed","Polytechnic","Chinese","Buddhism","Singaporean","Yes"
2,11,"Social",10,"Direct","Lie","What food do you hate the most?",0.110185185185185,"4.283879573456943",5.26632785703987,88.8075481119396,-0.548283768482364,NA,NA,44,34,12,90,36,33,69,0.170740740740741,0.657568185846362,0.80245743497113,0.00726086956521739,0.0195833333333333,-0.0461111111111111,46,24,18,3.25,0.166666666666667,3.8,1.28571428571429,4.2,2,0.333333333333333,4,2.37946428571429,-6.75,-0.525,2.8,1.65,"Female",20,"Right handed","Polytechnic","Chinese","Buddhism","Singaporean","Yes"
2,12,"Social",30,"Indirect","Lie","Do you use a Dell laptop?",0.0703703703703704,"4.183841654798016",4.23288329108618,93.2534610158725,0.729386681648649,NA,NA,44,34,12,90,36,33,69,0.170740740740741,0.657568185846362,0.80245743497113,0.00726086956521739,0.0195833333333333,-0.0461111111111111,46,24,18,3.25,0.166666666666667,3.8,1.28571428571429,4.2,2,0.333333333333333,4,2.37946428571429,-6.75,-0.525,2.8,1.65,"Female",20,"Right handed","Polytechnic","Chinese","Buddhism","Singaporean","Yes"
2,13,"Social",18,"Direct","Truth","What was the last country you visited?",0.925925925925926,"2.433435519458726",4.66630277037621,89.6113917358168,3.81222337242316,NA,NA,44,34,12,90,36,33,69,0.170740740740741,0.657568185846362,0.80245743497113,0.00726086956521739,0.0195833333333333,-0.0461111111111111,46,24,18,3.25,0.166666666666667,3.8,1.28571428571429,4.2,2,0.333333333333333,4,2.37946428571429,-6.75,-0.525,2.8,1.65,"Female",20,"Right handed","Polytechnic","Chinese","Buddhism","Singaporean","Yes"
2,14,"Social",16,"Direct","Lie","How many siblings do you have? (Eg. 0, 1, 2, 3)",0.89537037037037,"2.435641353717074",3.39970351476222,86.7564549807938,-6.38743679351845,NA,NA,44,34,12,90,36,33,69,0.170740740740741,0.657568185846362,0.80245743497113,0.00726086956521739,0.0195833333333333,-0.0461111111111111,46,24,18,3.25,0.166666666666667,3.8,1.28571428571429,4.2,2,0.333333333333333,4,2.37946428571429,-6.75,-0.525,2.8,1.65,"Female",20,"Right handed","Polytechnic","Chinese","Buddhism","Singaporean","Yes"
2,15,"Social",7,"Direct","Lie","What is your favourite sport?",0.0833333333333333,"2.300414989469573",5.03229673672467,90.2513435970729,-3.33165383425738,NA,NA,44,34,12,90,36,33,69,0.170740740740741,0.657568185846362,0.80245743497113,0.00726086956521739,0.0195833333333333,-0.0461111111111111,46,24,18,3.25,0.166666666666667,3.8,1.28571428571429,4.2,2,0.333333333333333,4,2.37946428571429,-6.75,-0.525,2.8,1.65,"Female",20,"Right handed","Polytechnic","Chinese","Buddhism","Singaporean","Yes"
2,16,"Social",2,"Direct","Truth","Which secondary school did you attend?",0.897222222222222,"1.8149595083668828",4.53305671666749,89.9606709576798,1.54730546055247,NA,NA,44,34,12,90,36,33,69,0.170740740740741,0.657568185846362,0.80245743497113,0.00726086956521739,0.0195833333333333,-0.0461111111111111,46,24,18,3.25,0.166666666666667,3.8,1.28571428571429,4.2,2,0.333333333333333,4,2.37946428571429,-6.75,-0.525,2.8,1.65,"Female",20,"Right handed","Polytechnic","Chinese","Buddhism","Singaporean","Yes"
2,17,"Social",19,"Direct","Truth","Which MRT station is closest to your house?",0.897222222222222,"2.1654273017775267",5.66637045936659,86.6463670890518,-1.35738285451461,NA,NA,44,34,12,90,36,33,69,0.170740740740741,0.657568185846362,0.80245743497113,0.00726086956521739,0.0195833333333333,-0.0461111111111111,46,24,18,3.25,0.166666666666667,3.8,1.28571428571429,4.2,2,0.333333333333333,4,2.37946428571429,-6.75,-0.525,2.8,1.65,"Female",20,"Right handed","Polytechnic","Chinese","Buddhism","Singaporean","Yes"
2,18,"Social",27,"Direct","Truth","How frequently do you drink alcohol?",0.982407407407407,"1.6484334599226713",3.66582060488872,93.8231892162439,4.68026300778931,NA,NA,44,34,12,90,36,33,69,0.170740740740741,0.657568185846362,0.80245743497113,0.00726086956521739,0.0195833333333333,-0.0461111111111111,46,24,18,3.25,0.166666666666667,3.8,1.28571428571429,4.2,2,0.333333333333333,4,2.37946428571429,-6.75,-0.525,2.8,1.65,"Female",20,"Right handed","Polytechnic","Chinese","Buddhism","Singaporean","Yes"
2,19,"Social",27,"Direct","Lie","How frequently do you drink alcohol?",0.00555555555555554,"3.734977165237069",3.89993064268492,91.7719668361046,2.50966141831246,NA,NA,44,34,12,90,36,33,69,0.170740740740741,0.657568185846362,0.80245743497113,0.00726086956521739,0.0195833333333333,-0.0461111111111111,46,24,18,3.25,0.166666666666667,3.8,1.28571428571429,4.2,2,0.333333333333333,4,2.37946428571429,-6.75,-0.525,2.8,1.65,"Female",20,"Right handed","Polytechnic","Chinese","Buddhism","Singaporean","Yes"
2,20,"Social",20,"Indirect","Lie","Is your house on the 16 floor of the building?",0.0175925925925926,"4.999445012770593",5.23205305542797,92.6174079781141,5.94099371302579,NA,NA,44,34,12,90,36,33,69,0.170740740740741,0.657568185846362,0.80245743497113,0.00726086956521739,0.0195833333333333,-0.0461111111111111,46,24,18,3.25,0.166666666666667,3.8,1.28571428571429,4.2,2,0.333333333333333,4,2.37946428571429,-6.75,-0.525,2.8,1.65,"Female",20,"Right handed","Polytechnic","Chinese","Buddhism","Singaporean","Yes"
2,21,"Social",22,"Direct","Truth","Which year in NTU are you currently in? (Eg. 1, 2, 3, 4)",0.986111111111111,"4.66636532661505",4.49909020564519,91.7333057250417,9.72589498407427,NA,NA,44,34,12,90,36,33,69,0.170740740740741,0.657568185846362,0.80245743497113,0.00726086956521739,0.0195833333333333,-0.0461111111111111,46,24,18,3.25,0.166666666666667,3.8,1.28571428571429,4.2,2,0.333333333333333,4,2.37946428571429,-6.75,-0.525,2.8,1.65,"Female",20,"Right handed","Polytechnic","Chinese","Buddhism","Singaporean","Yes"
2,22,"Social",15,"Indirect","Truth","Are you from Nanyang polytechnic?",0.993518518518518,"4.55098216724582",5.06651411461644,80.1045480312018,-5.37275096119551,NA,NA,44,34,12,90,36,33,69,0.170740740740741,0.657568185846362,0.80245743497113,0.00726086956521739,0.0195833333333333,-0.0461111111111111,46,24,18,3.25,0.166666666666667,3.8,1.28571428571429,4.2,2,0.333333333333333,4,2.37946428571429,-6.75,-0.525,2.8,1.65,"Female",20,"Right handed","Polytechnic","Chinese","Buddhism","Singaporean","Yes"
2,23,"Social",5,"Indirect","Truth","Is your favourite country Korea?",1,"3.7660064133815467",5.3327774903737,90.1142768870234,-2.86481761951971,NA,NA,44,34,12,90,36,33,69,0.170740740740741,0.657568185846362,0.80245743497113,0.00726086956521739,0.0195833333333333,-0.0461111111111111,46,24,18,3.25,0.166666666666667,3.8,1.28571428571429,4.2,2,0.333333333333333,4,2.37946428571429,-6.75,-0.525,2.8,1.65,"Female",20,"Right handed","Polytechnic","Chinese","Buddhism","Singaporean","Yes"
2,24,"Social",2,"Direct","Lie","Which secondary school did you attend?",0.0574074074074074,"1.8314391046296805",4.63269652007148,89.9032472439622,-3.47486025346745,NA,NA,44,34,12,90,36,33,69,0.170740740740741,0.657568185846362,0.80245743497113,0.00726086956521739,0.0195833333333333,-0.0461111111111111,46,24,18,3.25,0.166666666666667,3.8,1.28571428571429,4.2,2,0.333333333333333,4,2.37946428571429,-6.75,-0.525,2.8,1.65,"Female",20,"Right handed","Polytechnic","Chinese","Buddhism","Singaporean","Yes"
2,25,"Social",28,"Direct","Lie","What religion do you practice?",0.0388888888888889,"3.6703974863048643",3.66651032911614,89.4642152313762,-0.0659940777551071,NA,NA,44,34,12,90,36,33,69,0.170740740740741,0.657568185846362,0.80245743497113,0.00726086956521739,0.0195833333333333,-0.0461111111111111,46,24,18,3.25,0.166666666666667,3.8,1.28571428571429,4.2,2,0.333333333333333,4,2.37946428571429,-6.75,-0.525,2.8,1.65,"Female",20,"Right handed","Polytechnic","Chinese","Buddhism","Singaporean","Yes"
2,26,"Social",1,"Direct","Truth","Which primary school are you from?",0.968518518518519,"1.498731548897922",5.932726547122,89.6624826048385,2.72972904789572,NA,NA,44,34,12,90,36,33,69,0.170740740740741,0.657568185846362,0.80245743497113,0.00726086956521739,0.0195833333333333,-0.0461111111111111,46,24,18,3.25,0.166666666666667,3.8,1.28571428571429,4.2,2,0.333333333333333,4,2.37946428571429,-6.75,-0.525,2.8,1.65,"Female",20,"Right handed","Polytechnic","Chinese","Buddhism","Singaporean","Yes"
2,27,"Social",13,"Indirect","Lie","Is your dream job a Scientist when you were growing up?",0.0425925925925926,"2.466888426337391",6.81618529255502,92.994167136591,5.55334882008633,NA,NA,44,34,12,90,36,33,69,0.170740740740741,0.657568185846362,0.80245743497113,0.00726086956521739,0.0195833333333333,-0.0461111111111111,46,24,18,3.25,0.166666666666667,3.8,1.28571428571429,4.2,2,0.333333333333333,4,2.37946428571429,-6.75,-0.525,2.8,1.65,"Female",20,"Right handed","Polytechnic","Chinese","Buddhism","Singaporean","Yes"
2,28,"Social",1,"Indirect","Lie","Are you from Edgefield Primary School?",0.000925925925925941,"2.967091494007036",7.19955164729618,97.6402997285165,8.49441826067466,NA,NA,44,34,12,90,36,33,69,0.170740740740741,0.657568185846362,0.80245743497113,0.00726086956521739,0.0195833333333333,-0.0461111111111111,46,24,18,3.25,0.166666666666667,3.8,1.28571428571429,4.2,2,0.333333333333333,4,2.37946428571429,-6.75,-0.525,2.8,1.65,"Female",20,"Right handed","Polytechnic","Chinese","Buddhism","Singaporean","Yes"
2,29,"Social",20,"Indirect","Truth","Is your house on the 5 floor of the building?",0.962037037037037,"1.0490291249006987",6.69951507588848,78.2486848535879,-8.43146930574476,NA,NA,44,34,12,90,36,33,69,0.170740740740741,0.657568185846362,0.80245743497113,0.00726086956521739,0.0195833333333333,-0.0461111111111111,46,24,18,3.25,0.166666666666667,3.8,1.28571428571429,4.2,2,0.333333333333333,4,2.37946428571429,-6.75,-0.525,2.8,1.65,"Female",20,"Right handed","Polytechnic","Chinese","Buddhism","Singaporean","Yes"
2,30,"Social",28,"Indirect","Truth","Is your religion Christianity?",0.962037037037037,"2.035345317563042",5.83271333016455,85.3435983257861,5.00212449443555,NA,NA,44,34,12,90,36,33,69,0.170740740740741,0.657568185846362,0.80245743497113,0.00726086956521739,0.0195833333333333,-0.0461111111111111,46,24,18,3.25,0.166666666666667,3.8,1.28571428571429,4.2,2,0.333333333333333,4,2.37946428571429,-6.75,-0.525,2.8,1.65,"Female",20,"Right handed","Polytechnic","Chinese","Buddhism","Singaporean","Yes"
2,31,"Social",19,"Indirect","Lie","Is the Cityhall station the closest MRT to your house?",0.05,"2.267479536123574",5.99929295247421,86.4093407703755,0.994850312468941,NA,NA,44,34,12,90,36,33,69,0.170740740740741,0.657568185846362,0.80245743497113,0.00726086956521739,0.0195833333333333,-0.0461111111111111,46,24,18,3.25,0.166666666666667,3.8,1.28571428571429,4.2,2,0.333333333333333,4,2.37946428571429,-6.75,-0.525,2.8,1.65,"Female",20,"Right handed","Polytechnic","Chinese","Buddhism","Singaporean","Yes"
2,32,"Social",18,"Direct","Lie","What was the last country you visited?",0.05,"2.0029818541370332",4.19960810849443,92.6307109480235,2.55558351388646,NA,NA,44,34,12,90,36,33,69,0.170740740740741,0.657568185846362,0.80245743497113,0.00726086956521739,0.0195833333333333,-0.0461111111111111,46,24,18,3.25,0.166666666666667,3.8,1.28571428571429,4.2,2,0.333333333333333,4,2.37946428571429,-6.75,-0.525,2.8,1.65,"Female",20,"Right handed","Polytechnic","Chinese","Buddhism","Singaporean","Yes"
2,33,"Social",21,"Direct","Lie","Which school in NTU are you from? (Eg. NBS, SSS, SOH)",0.05,"1.2660044888034463",4.89978499850258,93.4200194522064,1.46092062254345,NA,NA,44,34,12,90,36,33,69,0.170740740740741,0.657568185846362,0.80245743497113,0.00726086956521739,0.0195833333333333,-0.0461111111111111,46,24,18,3.25,0.166666666666667,3.8,1.28571428571429,4.2,2,0.333333333333333,4,2.37946428571429,-6.75,-0.525,2.8,1.65,"Female",20,"Right handed","Polytechnic","Chinese","Buddhism","Singaporean","Yes"
2,34,"Social",23,"Indirect","Truth","Are you studying Business course in NTU?",0.95462962962963,"2.5176001575309783",7.23305395757779,86.8687865688117,7.09989668422583,NA,NA,44,34,12,90,36,33,69,0.170740740740741,0.657568185846362,0.80245743497113,0.00726086956521739,0.0195833333333333,-0.0461111111111111,46,24,18,3.25,0.166666666666667,3.8,1.28571428571429,4.2,2,0.333333333333333,4,2.37946428571429,-6.75,-0.525,2.8,1.65,"Female",20,"Right handed","Polytechnic","Chinese","Buddhism","Singaporean","Yes"
2,35,"Social",3,"Indirect","Truth","Is Yilin your closest friend back in secondary school?",0.958333333333333,"2.033546581165865",5.96546214097179,95.4848044532468,5.68827096378575,NA,NA,44,34,12,90,36,33,69,0.170740740740741,0.657568185846362,0.80245743497113,0.00726086956521739,0.0195833333333333,-0.0461111111111111,46,24,18,3.25,0.166666666666667,3.8,1.28571428571429,4.2,2,0.333333333333333,4,2.37946428571429,-6.75,-0.525,2.8,1.65,"Female",20,"Right handed","Polytechnic","Chinese","Buddhism","Singaporean","Yes"
2,36,"Social",13,"Direct","Truth","What is your dream job growing up?",0.947222222222222,"1.9498596170451492",6.16569773782976,81.433328305728,-5.77448158783305,NA,NA,44,34,12,90,36,33,69,0.170740740740741,0.657568185846362,0.80245743497113,0.00726086956521739,0.0195833333333333,-0.0461111111111111,46,24,18,3.25,0.166666666666667,3.8,1.28571428571429,4.2,2,0.333333333333333,4,2.37946428571429,-6.75,-0.525,2.8,1.65,"Female",20,"Right handed","Polytechnic","Chinese","Buddhism","Singaporean","Yes"
2,37,"Social",29,"Indirect","Lie","Do you use a Huawei phone?",0.0555555555555556,"2.7834564356599003",3.83313743025064,90.006203402917,6.33326310690764,NA,NA,44,34,12,90,36,33,69,0.170740740740741,0.657568185846362,0.80245743497113,0.00726086956521739,0.0195833333333333,-0.0461111111111111,46,24,18,3.25,0.166666666666667,3.8,1.28571428571429,4.2,2,0.333333333333333,4,2.37946428571429,-6.75,-0.525,2.8,1.65,"Female",20,"Right handed","Polytechnic","Chinese","Buddhism","Singaporean","Yes"
2,38,"Social",3,"Direct","Lie","Who is your closest friend back in secondary school?",0.0620370370370371,"6.665732063585892",6.28331015002914,90.6743308892023,5.74101500104331,NA,NA,44,34,12,90,36,33,69,0.170740740740741,0.657568185846362,0.80245743497113,0.00726086956521739,0.0195833333333333,-0.0461111111111111,46,24,18,3.25,0.166666666666667,3.8,1.28571428571429,4.2,2,0.333333333333333,4,2.37946428571429,-6.75,-0.525,2.8,1.65,"Female",20,"Right handed","Polytechnic","Chinese","Buddhism","Singaporean","Yes"
2,39,"Social",6,"Indirect","Truth","Were you in the Taekwondo CCA during secondary school?",0.961111111111111,"2.5349472023081034",5.19955806317739,83.1721035191394,-4.35907785591363,NA,NA,44,34,12,90,36,33,69,0.170740740740741,0.657568185846362,0.80245743497113,0.00726086956521739,0.0195833333333333,-0.0461111111111111,46,24,18,3.25,0.166666666666667,3.8,1.28571428571429,4.2,2,0.333333333333333,4,2.37946428571429,-6.75,-0.525,2.8,1.65,"Female",20,"Right handed","Polytechnic","Chinese","Buddhism","Singaporean","Yes"
2,40,"Social",16,"Indirect","Truth","Do you have 4 siblings?",0.961111111111111,"0.9814262085128576",5.91575067024678,81.6791877022675,1.89063337584723,NA,NA,44,34,12,90,36,33,69,0.170740740740741,0.657568185846362,0.80245743497113,0.00726086956521739,0.0195833333333333,-0.0461111111111111,46,24,18,3.25,0.166666666666667,3.8,1.28571428571429,4.2,2,0.333333333333333,4,2.37946428571429,-6.75,-0.525,2.8,1.65,"Female",20,"Right handed","Polytechnic","Chinese","Buddhism","Singaporean","Yes"
2,41,"Polygraph",10,"Indirect","Truth","Do you hate eating Pancakes the most?",0.977777777777778,"3.268191074952483",8.88267470546998,73.9391279792319,-11.2881444897152,NA,NA,44,34,12,90,36,33,69,0.170740740740741,0.657568185846362,0.80245743497113,0.00726086956521739,0.0195833333333333,-0.0461111111111111,46,24,18,3.25,0.166666666666667,3.8,1.28571428571429,4.2,2,0.333333333333333,4,2.37946428571429,-6.75,-0.525,2.8,1.65,"Female",20,"Right handed","Polytechnic","Chinese","Buddhism","Singaporean","Yes"
2,42,"Polygraph",22,"Indirect","Lie","Are you in your 1st year in NTU?",0.0231481481481481,"2.567155076889321",8.86568407155573,85.5238987266613,-5.46413913649957,NA,NA,44,34,12,90,36,33,69,0.170740740740741,0.657568185846362,0.80245743497113,0.00726086956521739,0.0195833333333333,-0.0461111111111111,46,24,18,3.25,0.166666666666667,3.8,1.28571428571429,4.2,2,0.333333333333333,4,2.37946428571429,-6.75,-0.525,2.8,1.65,"Female",20,"Right handed","Polytechnic","Chinese","Buddhism","Singaporean","Yes"
2,43,"Polygraph",3,"Indirect","Lie","Is Joel your closest friend back in secondary school?",0.0611111111111111,"4.369148732628673",8.88232823926955,82.6825611630672,-3.88522301962531,NA,NA,44,34,12,90,36,33,69,0.170740740740741,0.657568185846362,0.80245743497113,0.00726086956521739,0.0195833333333333,-0.0461111111111111,46,24,18,3.25,0.166666666666667,3.8,1.28571428571429,4.2,2,0.333333333333333,4,2.37946428571429,-6.75,-0.525,2.8,1.65,"Female",20,"Right handed","Polytechnic","Chinese","Buddhism","Singaporean","Yes"
2,44,"Polygraph",7,"Direct","Truth","What is your favourite sport?",0.951851851851852,"2.568278204649687",8.81565179908648,81.8576767602345,1.53031967543807,NA,NA,44,34,12,90,36,33,69,0.170740740740741,0.657568185846362,0.80245743497113,0.00726086956521739,0.0195833333333333,-0.0461111111111111,46,24,18,3.25,0.166666666666667,3.8,1.28571428571429,4.2,2,0.333333333333333,4,2.37946428571429,-6.75,-0.525,2.8,1.65,"Female",20,"Right handed","Polytechnic","Chinese","Buddhism","Singaporean","Yes"
2,45,"Polygraph",20,"Direct","Truth","Which floor of the building is your house on?",0.951851851851852,"4.067085783928633",8.86596124456264,79.6593467735216,5.35387087738111,NA,NA,44,34,12,90,36,33,69,0.170740740740741,0.657568185846362,0.80245743497113,0.00726086956521739,0.0195833333333333,-0.0461111111111111,46,24,18,3.25,0.166666666666667,3.8,1.28571428571429,4.2,2,0.333333333333333,4,2.37946428571429,-6.75,-0.525,2.8,1.65,"Female",20,"Right handed","Polytechnic","Chinese","Buddhism","Singaporean","Yes"
2,46,"Polygraph",22,"Indirect","Truth","Are you in your 3rd year in NTU?",0.951851851851852,"1.549606247805059",8.8494373774156,82.1666101022226,7.31845754550883,NA,NA,44,34,12,90,36,33,69,0.170740740740741,0.657568185846362,0.80245743497113,0.00726086956521739,0.0195833333333333,-0.0461111111111111,46,24,18,3.25,0.166666666666667,3.8,1.28571428571429,4.2,2,0.333333333333333,4,2.37946428571429,-6.75,-0.525,2.8,1.65,"Female",20,"Right handed","Polytechnic","Chinese","Buddhism","Singaporean","Yes"
2,47,"Polygraph",21,"Indirect","Lie","Are you from School of Physical and Mathematical Sciences in NTU?",0.037962962962963,"2.050051199970767",8.84955029981211,85.5234818981252,1.07790895483188,NA,NA,44,34,12,90,36,33,69,0.170740740740741,0.657568185846362,0.80245743497113,0.00726086956521739,0.0195833333333333,-0.0461111111111111,46,24,18,3.25,0.166666666666667,3.8,1.28571428571429,4.2,2,0.333333333333333,4,2.37946428571429,-6.75,-0.525,2.8,1.65,"Female",20,"Right handed","Polytechnic","Chinese","Buddhism","Singaporean","Yes"
2,48,"Polygraph",19,"Indirect","Truth","Is the Punggol station the closest MRT to your house?",0.934259259259259,"2.4520522984676063",8.86564012174495,83.6719498585666,-10.0287059711159,NA,NA,44,34,12,90,36,33,69,0.170740740740741,0.657568185846362,0.80245743497113,0.00726086956521739,0.0195833333333333,-0.0461111111111111,46,24,18,3.25,0.166666666666667,3.8,1.28571428571429,4.2,2,0.333333333333333,4,2.37946428571429,-6.75,-0.525,2.8,1.65,"Female",20,"Right handed","Polytechnic","Chinese","Buddhism","Singaporean","Yes"
2,49,"Polygraph",15,"Direct","Truth","Which polytechnic or junior college are you from?",0.922222222222222,"1.76626465911977",8.88254927215166,85.6490991047664,-4.34273857372619,NA,NA,44,34,12,90,36,33,69,0.170740740740741,0.657568185846362,0.80245743497113,0.00726086956521739,0.0195833333333333,-0.0461111111111111,46,24,18,3.25,0.166666666666667,3.8,1.28571428571429,4.2,2,0.333333333333333,4,2.37946428571429,-6.75,-0.525,2.8,1.65,"Female",20,"Right handed","Polytechnic","Chinese","Buddhism","Singaporean","Yes"
2,50,"Polygraph",18,"Indirect","Truth","Was the last country you visited Taiwan?",0.92962962962963,"6.902133910451084",8.84894815459847,81.3830029974127,3.04574270733463,NA,NA,44,34,12,90,36,33,69,0.170740740740741,0.657568185846362,0.80245743497113,0.00726086956521739,0.0195833333333333,-0.0461111111111111,46,24,18,3.25,0.166666666666667,3.8,1.28571428571429,4.2,2,0.333333333333333,4,2.37946428571429,-6.75,-0.525,2.8,1.65,"Female",20,"Right handed","Polytechnic","Chinese","Buddhism","Singaporean","Yes"
2,51,"Polygraph",20,"Direct","Lie","Which floor of the building is your house on?",0.0240740740740741,"18.383789812913164",8.86604978586547,83.6808802478926,-4.63386483505317,NA,NA,44,34,12,90,36,33,69,0.170740740740741,0.657568185846362,0.80245743497113,0.00726086956521739,0.0195833333333333,-0.0461111111111111,46,24,18,3.25,0.166666666666667,3.8,1.28571428571429,4.2,2,0.333333333333333,4,2.37946428571429,-6.75,-0.525,2.8,1.65,"Female",20,"Right handed","Polytechnic","Chinese","Buddhism","Singaporean","Yes"
2,52,"Polygraph",3,"Direct","Truth","Who is your closest friend back in secondary school?",0.528703703703704,"7.7014658723492175",8.84899435006082,85.6139254219509,-0.886660133592457,NA,NA,44,34,12,90,36,33,69,0.170740740740741,0.657568185846362,0.80245743497113,0.00726086956521739,0.0195833333333333,-0.0461111111111111,46,24,18,3.25,0.166666666666667,3.8,1.28571428571429,4.2,2,0.333333333333333,4,2.37946428571429,-6.75,-0.525,2.8,1.65,"Female",20,"Right handed","Polytechnic","Chinese","Buddhism","Singaporean","Yes"
2,53,"Polygraph",13,"Direct","Lie","What is your dream job growing up?",0.0722222222222222,"2.5659055535215884",7.93256486300379,87.0688778624257,4.73814743395259,NA,NA,44,34,12,90,36,33,69,0.170740740740741,0.657568185846362,0.80245743497113,0.00726086956521739,0.0195833333333333,-0.0461111111111111,46,24,18,3.25,0.166666666666667,3.8,1.28571428571429,4.2,2,0.333333333333333,4,2.37946428571429,-6.75,-0.525,2.8,1.65,"Female",20,"Right handed","Polytechnic","Chinese","Buddhism","Singaporean","Yes"
2,54,"Polygraph",15,"Direct","Lie","Which polytechnic or junior college are you from?",0.0722222222222222,"2.0359959041234106",8.79887834796682,81.6696386712835,-1.17825302430759,NA,NA,44,34,12,90,36,33,69,0.170740740740741,0.657568185846362,0.80245743497113,0.00726086956521739,0.0195833333333333,-0.0461111111111111,46,24,18,3.25,0.166666666666667,3.8,1.28571428571429,4.2,2,0.333333333333333,4,2.37946428571429,-6.75,-0.525,2.8,1.65,"Female",20,"Right handed","Polytechnic","Chinese","Buddhism","Singaporean","Yes"
2,55,"Polygraph",6,"Direct","Lie","What CCA (Co-curricular Activity) did you join in secondary school?",0.0722222222222222,"1.633375978562981",6.23295547137968,85.325631287726,3.33608785798891,NA,NA,44,34,12,90,36,33,69,0.170740740740741,0.657568185846362,0.80245743497113,0.00726086956521739,0.0195833333333333,-0.0461111111111111,46,24,18,3.25,0.166666666666667,3.8,1.28571428571429,4.2,2,0.333333333333333,4,2.37946428571429,-6.75,-0.525,2.8,1.65,"Female",20,"Right handed","Polytechnic","Chinese","Buddhism","Singaporean","Yes"
2,56,"Polygraph",10,"Indirect","Lie","Do you hate eating Ramen the most?",0.0722222222222222,"1.9159008054994047",5.44978583278134,80.0719590948962,-4.36264316281556,NA,NA,44,34,12,90,36,33,69,0.170740740740741,0.657568185846362,0.80245743497113,0.00726086956521739,0.0195833333333333,-0.0461111111111111,46,24,18,3.25,0.166666666666667,3.8,1.28571428571429,4.2,2,0.333333333333333,4,2.37946428571429,-6.75,-0.525,2.8,1.65,"Female",20,"Right handed","Polytechnic","Chinese","Buddhism","Singaporean","Yes"
2,57,"Polygraph",29,"Direct","Lie","What brand of handphone do you use?",0.0722222222222222,"1.6332306552212685",8.84928243025206,84.3165528379819,2.02023969785868,NA,NA,44,34,12,90,36,33,69,0.170740740740741,0.657568185846362,0.80245743497113,0.00726086956521739,0.0195833333333333,-0.0461111111111111,46,24,18,3.25,0.166666666666667,3.8,1.28571428571429,4.2,2,0.333333333333333,4,2.37946428571429,-6.75,-0.525,2.8,1.65,"Female",20,"Right handed","Polytechnic","Chinese","Buddhism","Singaporean","Yes"
2,58,"Polygraph",2,"Indirect","Truth","Are you from Edgefield Secondary School?",0.938888888888889,"3.153189669828862",8.84888239018619,77.7833731627287,-7.34453203796099,NA,NA,44,34,12,90,36,33,69,0.170740740740741,0.657568185846362,0.80245743497113,0.00726086956521739,0.0195833333333333,-0.0461111111111111,46,24,18,3.25,0.166666666666667,3.8,1.28571428571429,4.2,2,0.333333333333333,4,2.37946428571429,-6.75,-0.525,2.8,1.65,"Female",20,"Right handed","Polytechnic","Chinese","Buddhism","Singaporean","Yes"
2,59,"Polygraph",27,"Indirect","Truth","Do you not drink alcohol at all?",0.963888888888889,"5.602137888316065",8.86552046262659,69.5984074661051,-6.79384213337011,NA,NA,44,34,12,90,36,33,69,0.170740740740741,0.657568185846362,0.80245743497113,0.00726086956521739,0.0195833333333333,-0.0461111111111111,46,24,18,3.25,0.166666666666667,3.8,1.28571428571429,4.2,2,0.333333333333333,4,2.37946428571429,-6.75,-0.525,2.8,1.65,"Female",20,"Right handed","Polytechnic","Chinese","Buddhism","Singaporean","Yes"
2,60,"Polygraph",5,"Direct","Truth","What is your favourite country you visited? ",0.984259259259259,"1.4818236820865422",7.73278576694429,82.4535753626186,6.41137945409088,NA,NA,44,34,12,90,36,33,69,0.170740740740741,0.657568185846362,0.80245743497113,0.00726086956521739,0.0195833333333333,-0.0461111111111111,46,24,18,3.25,0.166666666666667,3.8,1.28571428571429,4.2,2,0.333333333333333,4,2.37946428571429,-6.75,-0.525,2.8,1.65,"Female",20,"Right handed","Polytechnic","Chinese","Buddhism","Singaporean","Yes"
2,61,"Polygraph",13,"Indirect","Truth","Is your dream job a Teacher when you were growing up?",0.986111111111111,"1.8649426982738078",7.91630341182463,81.2743167777062,-1.64307486275816,NA,NA,44,34,12,90,36,33,69,0.170740740740741,0.657568185846362,0.80245743497113,0.00726086956521739,0.0195833333333333,-0.0461111111111111,46,24,18,3.25,0.166666666666667,3.8,1.28571428571429,4.2,2,0.333333333333333,4,2.37946428571429,-6.75,-0.525,2.8,1.65,"Female",20,"Right handed","Polytechnic","Chinese","Buddhism","Singaporean","Yes"
2,62,"Polygraph",23,"Direct","Truth","What course are you studying?",0.987037037037037,"1.5149869050364941",5.76641832315363,90.82943419086,2.38010697967169,NA,NA,44,34,12,90,36,33,69,0.170740740740741,0.657568185846362,0.80245743497113,0.00726086956521739,0.0195833333333333,-0.0461111111111111,46,24,18,3.25,0.166666666666667,3.8,1.28571428571429,4.2,2,0.333333333333333,4,2.37946428571429,-6.75,-0.525,2.8,1.65,"Female",20,"Right handed","Polytechnic","Chinese","Buddhism","Singaporean","Yes"
2,63,"Polygraph",21,"Direct","Truth","Which school in NTU are you from? (Eg. NBS, SSS, SOH)",0.986111111111111,"3.883496600203216",7.19959720107727,84.7912033593647,0.52154043801643,NA,NA,44,34,12,90,36,33,69,0.170740740740741,0.657568185846362,0.80245743497113,0.00726086956521739,0.0195833333333333,-0.0461111111111111,46,24,18,3.25,0.166666666666667,3.8,1.28571428571429,4.2,2,0.333333333333333,4,2.37946428571429,-6.75,-0.525,2.8,1.65,"Female",20,"Right handed","Polytechnic","Chinese","Buddhism","Singaporean","Yes"
2,64,"Polygraph",18,"Indirect","Lie","Was the last country you visited Japan?",0.107407407407407,"2.0333781600929797",8.39916071807966,80.0942191483149,-0.827311823032048,NA,NA,44,34,12,90,36,33,69,0.170740740740741,0.657568185846362,0.80245743497113,0.00726086956521739,0.0195833333333333,-0.0461111111111111,46,24,18,3.25,0.166666666666667,3.8,1.28571428571429,4.2,2,0.333333333333333,4,2.37946428571429,-6.75,-0.525,2.8,1.65,"Female",20,"Right handed","Polytechnic","Chinese","Buddhism","Singaporean","Yes"
2,65,"Polygraph",5,"Indirect","Lie","Is your favourite country Italy?",0.106481481481481,"1.8318250295706093",7.0663845106028,85.5246007637354,3.0954580864899,NA,NA,44,34,12,90,36,33,69,0.170740740740741,0.657568185846362,0.80245743497113,0.00726086956521739,0.0195833333333333,-0.0461111111111111,46,24,18,3.25,0.166666666666667,3.8,1.28571428571429,4.2,2,0.333333333333333,4,2.37946428571429,-6.75,-0.525,2.8,1.65,"Female",20,"Right handed","Polytechnic","Chinese","Buddhism","Singaporean","Yes"
2,66,"Polygraph",2,"Indirect","Lie","Are you from Serangoon Secondary School?",0.106481481481481,"1.7336464787367731",8.8657055653166,76.5111704732631,-15.9472815944142,NA,NA,44,34,12,90,36,33,69,0.170740740740741,0.657568185846362,0.80245743497113,0.00726086956521739,0.0195833333333333,-0.0461111111111111,46,24,18,3.25,0.166666666666667,3.8,1.28571428571429,4.2,2,0.333333333333333,4,2.37946428571429,-6.75,-0.525,2.8,1.65,"Female",20,"Right handed","Polytechnic","Chinese","Buddhism","Singaporean","Yes"
2,67,"Polygraph",1,"Direct","Lie","Which primary school are you from?",0.106481481481481,"1.4150628708302975",5.3662733847741,80.1330849873126,-5.10481040361528,NA,NA,44,34,12,90,36,33,69,0.170740740740741,0.657568185846362,0.80245743497113,0.00726086956521739,0.0195833333333333,-0.0461111111111111,46,24,18,3.25,0.166666666666667,3.8,1.28571428571429,4.2,2,0.333333333333333,4,2.37946428571429,-6.75,-0.525,2.8,1.65,"Female",20,"Right handed","Polytechnic","Chinese","Buddhism","Singaporean","Yes"
2,68,"Polygraph",30,"Direct","Lie","What brand of laptop do you mainly use?",0.106481481481481,"3.767821190180257",8.83231649803929,79.1839182525633,-4.93793421556738,NA,NA,44,34,12,90,36,33,69,0.170740740740741,0.657568185846362,0.80245743497113,0.00726086956521739,0.0195833333333333,-0.0461111111111111,46,24,18,3.25,0.166666666666667,3.8,1.28571428571429,4.2,2,0.333333333333333,4,2.37946428571429,-6.75,-0.525,2.8,1.65,"Female",20,"Right handed","Polytechnic","Chinese","Buddhism","Singaporean","Yes"
2,69,"Polygraph",7,"Indirect","Lie","Is your favourite sport Tennis?",0.0203703703703704,"2.567433853633702",6.26636827806942,90.028179821883,1.8923278485592,NA,NA,44,34,12,90,36,33,69,0.170740740740741,0.657568185846362,0.80245743497113,0.00726086956521739,0.0195833333333333,-0.0461111111111111,46,24,18,3.25,0.166666666666667,3.8,1.28571428571429,4.2,2,0.333333333333333,4,2.37946428571429,-6.75,-0.525,2.8,1.65,"Female",20,"Right handed","Polytechnic","Chinese","Buddhism","Singaporean","Yes"
2,70,"Polygraph",27,"Indirect","Lie","Do you drink alcohol socially?",0.0203703703703704,"1.6491773996967822",7.61581175075844,87.4578513356516,4.47141812794088,NA,NA,44,34,12,90,36,33,69,0.170740740740741,0.657568185846362,0.80245743497113,0.00726086956521739,0.0195833333333333,-0.0461111111111111,46,24,18,3.25,0.166666666666667,3.8,1.28571428571429,4.2,2,0.333333333333333,4,2.37946428571429,-6.75,-0.525,2.8,1.65,"Female",20,"Right handed","Polytechnic","Chinese","Buddhism","Singaporean","Yes"
2,71,"Polygraph",28,"Indirect","Lie","Is your religion Buddhism?",0.0203703703703704,"1.5486714306753129",7.36619093874469,84.169260730348,-1.55901000973709,NA,NA,44,34,12,90,36,33,69,0.170740740740741,0.657568185846362,0.80245743497113,0.00726086956521739,0.0195833333333333,-0.0461111111111111,46,24,18,3.25,0.166666666666667,3.8,1.28571428571429,4.2,2,0.333333333333333,4,2.37946428571429,-6.75,-0.525,2.8,1.65,"Female",20,"Right handed","Polytechnic","Chinese","Buddhism","Singaporean","Yes"
2,72,"Polygraph",23,"Indirect","Lie","Are you studying Chemistry and Biological Chemistry in NTU?",0.0203703703703704,"1.3335438864305615",8.84901712695137,79.7314117646473,-0.691216164016481,NA,NA,44,34,12,90,36,33,69,0.170740740740741,0.657568185846362,0.80245743497113,0.00726086956521739,0.0195833333333333,-0.0461111111111111,46,24,18,3.25,0.166666666666667,3.8,1.28571428571429,4.2,2,0.333333333333333,4,2.37946428571429,-6.75,-0.525,2.8,1.65,"Female",20,"Right handed","Polytechnic","Chinese","Buddhism","Singaporean","Yes"
2,73,"Polygraph",6,"Direct","Truth","What CCA (Co-curricular Activity) did you join in secondary school?",0.95462962962963,"1.9817178174853325",6.46590420580469,83.1789448678137,-2.09740314009412,NA,NA,44,34,12,90,36,33,69,0.170740740740741,0.657568185846362,0.80245743497113,0.00726086956521739,0.0195833333333333,-0.0461111111111111,46,24,18,3.25,0.166666666666667,3.8,1.28571428571429,4.2,2,0.333333333333333,4,2.37946428571429,-6.75,-0.525,2.8,1.65,"Female",20,"Right handed","Polytechnic","Chinese","Buddhism","Singaporean","Yes"
2,74,"Polygraph",16,"Direct","Truth","How many siblings do you have? (Eg. 0, 1, 2, 3)",0.95462962962963,"1.4659000355750322",4.46609700797126,82.9183278795156,-6.89157476874439,NA,NA,44,34,12,90,36,33,69,0.170740740740741,0.657568185846362,0.80245743497113,0.00726086956521739,0.0195833333333333,-0.0461111111111111,46,24,18,3.25,0.166666666666667,3.8,1.28571428571429,4.2,2,0.333333333333333,4,2.37946428571429,-6.75,-0.525,2.8,1.65,"Female",20,"Right handed","Polytechnic","Chinese","Buddhism","Singaporean","Yes"
2,75,"Polygraph",29,"Indirect","Truth","Do you use a Samsung phone?",0.948148148148148,"2.200459195766598",8.69919491535984,80.7122552805337,-8.83591594833089,NA,NA,44,34,12,90,36,33,69,0.170740740740741,0.657568185846362,0.80245743497113,0.00726086956521739,0.0195833333333333,-0.0461111111111111,46,24,18,3.25,0.166666666666667,3.8,1.28571428571429,4.2,2,0.333333333333333,4,2.37946428571429,-6.75,-0.525,2.8,1.65,"Female",20,"Right handed","Polytechnic","Chinese","Buddhism","Singaporean","Yes"
2,76,"Polygraph",30,"Indirect","Truth","Do you use an Apple laptop?",0.869444444444444,"5.850241948850453",5.38330219406635,79.7212999192333,8.82456404973163,NA,NA,44,34,12,90,36,33,69,0.170740740740741,0.657568185846362,0.80245743497113,0.00726086956521739,0.0195833333333333,-0.0461111111111111,46,24,18,3.25,0.166666666666667,3.8,1.28571428571429,4.2,2,0.333333333333333,4,2.37946428571429,-6.75,-0.525,2.8,1.65,"Female",20,"Right handed","Polytechnic","Chinese","Buddhism","Singaporean","Yes"
2,77,"Polygraph",16,"Indirect","Lie","Do you have 2 siblings?",0.0453703703703704,"1.9840285538230091",8.86577934981324,81.0633181056814,3.20080026510757,NA,NA,44,34,12,90,36,33,69,0.170740740740741,0.657568185846362,0.80245743497113,0.00726086956521739,0.0195833333333333,-0.0461111111111111,46,24,18,3.25,0.166666666666667,3.8,1.28571428571429,4.2,2,0.333333333333333,4,2.37946428571429,-6.75,-0.525,2.8,1.65,"Female",20,"Right handed","Polytechnic","Chinese","Buddhism","Singaporean","Yes"
2,78,"Polygraph",19,"Direct","Lie","Which MRT station is closest to your house?",0.0425925925925926,"1.7824542503803968",8.8491361446213,81.1979734836612,-9.72029160654387,NA,NA,44,34,12,90,36,33,69,0.170740740740741,0.657568185846362,0.80245743497113,0.00726086956521739,0.0195833333333333,-0.0461111111111111,46,24,18,3.25,0.166666666666667,3.8,1.28571428571429,4.2,2,0.333333333333333,4,2.37946428571429,-6.75,-0.525,2.8,1.65,"Female",20,"Right handed","Polytechnic","Chinese","Buddhism","Singaporean","Yes"
2,79,"Polygraph",1,"Indirect","Truth","Are you from Woodlands Primary School?",0.955555555555555,"2.100134480278939",8.86588938487694,80.7370666113428,-7.87507939908923,NA,NA,44,34,12,90,36,33,69,0.170740740740741,0.657568185846362,0.80245743497113,0.00726086956521739,0.0195833333333333,-0.0461111111111111,46,24,18,3.25,0.166666666666667,3.8,1.28571428571429,4.2,2,0.333333333333333,4,2.37946428571429,-6.75,-0.525,2.8,1.65,"Female",20,"Right handed","Polytechnic","Chinese","Buddhism","Singaporean","Yes"
2,80,"Polygraph",28,"Direct","Truth","What religion do you practice?",0.950925925925926,"1.566685423022136",8.84875150281005,81.7525090840182,0.393635837044798,NA,NA,44,34,12,90,36,33,69,0.170740740740741,0.657568185846362,0.80245743497113,0.00726086956521739,0.0195833333333333,-0.0461111111111111,46,24,18,3.25,0.166666666666667,3.8,1.28571428571429,4.2,2,0.333333333333333,4,2.37946428571429,-6.75,-0.525,2.8,1.65,"Female",20,"Right handed","Polytechnic","Chinese","Buddhism","Singaporean","Yes"
3,1,"Social",20,"Direct","Lie","Which floor of the building is your house on?",NA,"None",4.49935069680214,69.2066067695937,0.388528020268836,NA,NA,33,28,10,71,33,48,81,NA,0.744511285450619,NA,-0.0420697674418605,0.0178333333333333,0.0208095238095238,43,18,21,4,1.83333333333333,2,3.14285714285714,3.8,3.75,3.33333333333333,4,3.23244047619048,3.2,-0.375,6.15,5.025,"Female",21,"Right handed","Junior College","Chinese","Buddhism","Singaporean","Yes"
3,2,"Social",6,"Indirect","Truth","Were you in the Netball CCA during secondary school?",NA,"None",4.19925586786121,80.3498923132802,6.28057751272199,NA,NA,33,28,10,71,33,48,81,NA,0.744511285450619,NA,-0.0420697674418605,0.0178333333333333,0.0208095238095238,43,18,21,4,1.83333333333333,2,3.14285714285714,3.8,3.75,3.33333333333333,4,3.23244047619048,3.2,-0.375,6.15,5.025,"Female",21,"Right handed","Junior College","Chinese","Buddhism","Singaporean","Yes"
3,3,"Social",29,"Direct","Truth","What brand of handphone do you use?",NA,"None",2.46688072709367,79.9431774455075,-9.63776393428985,NA,NA,33,28,10,71,33,48,81,NA,0.744511285450619,NA,-0.0420697674418605,0.0178333333333333,0.0208095238095238,43,18,21,4,1.83333333333333,2,3.14285714285714,3.8,3.75,3.33333333333333,4,3.23244047619048,3.2,-0.375,6.15,5.025,"Female",21,"Right handed","Junior College","Chinese","Buddhism","Singaporean","Yes"
3,4,"Social",24,"Direct","Truth","How old is your mum? (Eg. 45, 52)",NA,"None",2.76615237817168,78.3811528193699,4.63438957453376,NA,NA,33,28,10,71,33,48,81,NA,0.744511285450619,NA,-0.0420697674418605,0.0178333333333333,0.0208095238095238,43,18,21,4,1.83333333333333,2,3.14285714285714,3.8,3.75,3.33333333333333,4,3.23244047619048,3.2,-0.375,6.15,5.025,"Female",21,"Right handed","Junior College","Chinese","Buddhism","Singaporean","Yes"
3,5,"Social",19,"Direct","Truth","Which MRT station is closest to your house?",NA,"None",3.93279872788116,81.8471844412135,10.743004040018,NA,NA,33,28,10,71,33,48,81,NA,0.744511285450619,NA,-0.0420697674418605,0.0178333333333333,0.0208095238095238,43,18,21,4,1.83333333333333,2,3.14285714285714,3.8,3.75,3.33333333333333,4,3.23244047619048,3.2,-0.375,6.15,5.025,"Female",21,"Right handed","Junior College","Chinese","Buddhism","Singaporean","Yes"
3,6,"Social",30,"Direct","Lie","What brand of laptop do you mainly use?",NA,"None",3.03315680660307,77.7985812523388,1.33810831480945,NA,NA,33,28,10,71,33,48,81,NA,0.744511285450619,NA,-0.0420697674418605,0.0178333333333333,0.0208095238095238,43,18,21,4,1.83333333333333,2,3.14285714285714,3.8,3.75,3.33333333333333,4,3.23244047619048,3.2,-0.375,6.15,5.025,"Female",21,"Right handed","Junior College","Chinese","Buddhism","Singaporean","Yes"
3,7,"Social",1,"Direct","Lie","Which primary school are you from?",NA,"None",2.56662222463638,91.9071229007605,14.3282402325417,NA,NA,33,28,10,71,33,48,81,NA,0.744511285450619,NA,-0.0420697674418605,0.0178333333333333,0.0208095238095238,43,18,21,4,1.83333333333333,2,3.14285714285714,3.8,3.75,3.33333333333333,4,3.23244047619048,3.2,-0.375,6.15,5.025,"Female",21,"Right handed","Junior College","Chinese","Buddhism","Singaporean","Yes"
3,8,"Social",26,"Indirect","Truth","Do you smoke regularly?",NA,"None",2.03302976908162,82.4133804559325,6.74811165667788,NA,NA,33,28,10,71,33,48,81,NA,0.744511285450619,NA,-0.0420697674418605,0.0178333333333333,0.0208095238095238,43,18,21,4,1.83333333333333,2,3.14285714285714,3.8,3.75,3.33333333333333,4,3.23244047619048,3.2,-0.375,6.15,5.025,"Female",21,"Right handed","Junior College","Chinese","Buddhism","Singaporean","Yes"
3,9,"Social",14,"Indirect","Truth","Is your favourite flavour Strawberry?",NA,"None",3.56628217501566,72.8021931207212,0.0573702747408191,NA,NA,33,28,10,71,33,48,81,NA,0.744511285450619,NA,-0.0420697674418605,0.0178333333333333,0.0208095238095238,43,18,21,4,1.83333333333333,2,3.14285714285714,3.8,3.75,3.33333333333333,4,3.23244047619048,3.2,-0.375,6.15,5.025,"Female",21,"Right handed","Junior College","Chinese","Buddhism","Singaporean","Yes"
3,10,"Social",14,"Indirect","Lie","Is your favourite flavour Chocolate?",NA,"None",3.33299723966047,77.2551971662393,-5.38943093293422,NA,NA,33,28,10,71,33,48,81,NA,0.744511285450619,NA,-0.0420697674418605,0.0178333333333333,0.0208095238095238,43,18,21,4,1.83333333333333,2,3.14285714285714,3.8,3.75,3.33333333333333,4,3.23244047619048,3.2,-0.375,6.15,5.025,"Female",21,"Right handed","Junior College","Chinese","Buddhism","Singaporean","Yes"
3,11,"Social",2,"Direct","Truth","Which secondary school did you attend?",NA,"None",3.06616829009727,70.9665944162762,2.89444774991215,NA,NA,33,28,10,71,33,48,81,NA,0.744511285450619,NA,-0.0420697674418605,0.0178333333333333,0.0208095238095238,43,18,21,4,1.83333333333333,2,3.14285714285714,3.8,3.75,3.33333333333333,4,3.23244047619048,3.2,-0.375,6.15,5.025,"Female",21,"Right handed","Junior College","Chinese","Buddhism","Singaporean","Yes"
3,12,"Social",25,"Direct","Truth","How old is your dad? (Eg. 45, 52)",NA,"None",2.64967881329358,83.0892603445621,1.31147192828578,NA,NA,33,28,10,71,33,48,81,NA,0.744511285450619,NA,-0.0420697674418605,0.0178333333333333,0.0208095238095238,43,18,21,4,1.83333333333333,2,3.14285714285714,3.8,3.75,3.33333333333333,4,3.23244047619048,3.2,-0.375,6.15,5.025,"Female",21,"Right handed","Junior College","Chinese","Buddhism","Singaporean","Yes"
3,13,"Social",4,"Indirect","Lie","Is Mrs Leong your favourite teacher in secondary school?",NA,"None",2.79954208713025,74.6505346035663,8.43135759690041,NA,NA,33,28,10,71,33,48,81,NA,0.744511285450619,NA,-0.0420697674418605,0.0178333333333333,0.0208095238095238,43,18,21,4,1.83333333333333,2,3.14285714285714,3.8,3.75,3.33333333333333,4,3.23244047619048,3.2,-0.375,6.15,5.025,"Female",21,"Right handed","Junior College","Chinese","Buddhism","Singaporean","Yes"
3,14,"Social",23,"Indirect","Lie","Are you studying Business course in NTU?",NA,"None",3.06633157841861,75.0757317031516,1.80112689425219,NA,NA,33,28,10,71,33,48,81,NA,0.744511285450619,NA,-0.0420697674418605,0.0178333333333333,0.0208095238095238,43,18,21,4,1.83333333333333,2,3.14285714285714,3.8,3.75,3.33333333333333,4,3.23244047619048,3.2,-0.375,6.15,5.025,"Female",21,"Right handed","Junior College","Chinese","Buddhism","Singaporean","Yes"
3,15,"Social",26,"Indirect","Lie","Do you not smoke at all? ",NA,"None",2.8665621066466,75.1163466955696,3.40092799537554,NA,NA,33,28,10,71,33,48,81,NA,0.744511285450619,NA,-0.0420697674418605,0.0178333333333333,0.0208095238095238,43,18,21,4,1.83333333333333,2,3.14285714285714,3.8,3.75,3.33333333333333,4,3.23244047619048,3.2,-0.375,6.15,5.025,"Female",21,"Right handed","Junior College","Chinese","Buddhism","Singaporean","Yes"
3,16,"Social",1,"Indirect","Truth","Are you from Canberra Primary School?",NA,"None",3.03319434076548,77.1856383829925,6.65299642354398,NA,NA,33,28,10,71,33,48,81,NA,0.744511285450619,NA,-0.0420697674418605,0.0178333333333333,0.0208095238095238,43,18,21,4,1.83333333333333,2,3.14285714285714,3.8,3.75,3.33333333333333,4,3.23244047619048,3.2,-0.375,6.15,5.025,"Female",21,"Right handed","Junior College","Chinese","Buddhism","Singaporean","Yes"
3,17,"Social",15,"Indirect","Truth","Are you from Temasek Polytechnic?",NA,"None",3.03293834021315,75.2414405893091,6.72079076796868,NA,NA,33,28,10,71,33,48,81,NA,0.744511285450619,NA,-0.0420697674418605,0.0178333333333333,0.0208095238095238,43,18,21,4,1.83333333333333,2,3.14285714285714,3.8,3.75,3.33333333333333,4,3.23244047619048,3.2,-0.375,6.15,5.025,"Female",21,"Right handed","Junior College","Chinese","Buddhism","Singaporean","Yes"
3,18,"Social",28,"Indirect","Truth","Is your religion Buddhism?",NA,"None",2.36616367101669,75.7620836102237,3.83548523088932,NA,NA,33,28,10,71,33,48,81,NA,0.744511285450619,NA,-0.0420697674418605,0.0178333333333333,0.0208095238095238,43,18,21,4,1.83333333333333,2,3.14285714285714,3.8,3.75,3.33333333333333,4,3.23244047619048,3.2,-0.375,6.15,5.025,"Female",21,"Right handed","Junior College","Chinese","Buddhism","Singaporean","Yes"
3,19,"Social",15,"Direct","Lie","Which polytechnic or junior college are you from?",NA,"None",2.76654888968915,79.7354050809142,6.73680028210092,NA,NA,33,28,10,71,33,48,81,NA,0.744511285450619,NA,-0.0420697674418605,0.0178333333333333,0.0208095238095238,43,18,21,4,1.83333333333333,2,3.14285714285714,3.8,3.75,3.33333333333333,4,3.23244047619048,3.2,-0.375,6.15,5.025,"Female",21,"Right handed","Junior College","Chinese","Buddhism","Singaporean","Yes"
3,20,"Social",22,"Indirect","Truth","Are you in your 3rd year in NTU?",NA,"None",3.166481457185,76.1393030382553,2.60988634944614,NA,NA,33,28,10,71,33,48,81,NA,0.744511285450619,NA,-0.0420697674418605,0.0178333333333333,0.0208095238095238,43,18,21,4,1.83333333333333,2,3.14285714285714,3.8,3.75,3.33333333333333,4,3.23244047619048,3.2,-0.375,6.15,5.025,"Female",21,"Right handed","Junior College","Chinese","Buddhism","Singaporean","Yes"
3,21,"Social",25,"Indirect","Lie","Is your dad 49 years old this year?",NA,"None",2.93349198065698,78.0740523176346,2.32944570809443,NA,NA,33,28,10,71,33,48,81,NA,0.744511285450619,NA,-0.0420697674418605,0.0178333333333333,0.0208095238095238,43,18,21,4,1.83333333333333,2,3.14285714285714,3.8,3.75,3.33333333333333,4,3.23244047619048,3.2,-0.375,6.15,5.025,"Female",21,"Right handed","Junior College","Chinese","Buddhism","Singaporean","Yes"
3,22,"Social",17,"Indirect","Truth","Did you celebrate your 21st birthday at home?",NA,"None",4.06615642085671,83.6130368516308,10.3181077198514,NA,NA,33,28,10,71,33,48,81,NA,0.744511285450619,NA,-0.0420697674418605,0.0178333333333333,0.0208095238095238,43,18,21,4,1.83333333333333,2,3.14285714285714,3.8,3.75,3.33333333333333,4,3.23244047619048,3.2,-0.375,6.15,5.025,"Female",21,"Right handed","Junior College","Chinese","Buddhism","Singaporean","Yes"
3,23,"Social",28,"Direct","Lie","What religion do you practice?",NA,"None",2.33322982117534,70.5448512874395,2.82476099398576,NA,NA,33,28,10,71,33,48,81,NA,0.744511285450619,NA,-0.0420697674418605,0.0178333333333333,0.0208095238095238,43,18,21,4,1.83333333333333,2,3.14285714285714,3.8,3.75,3.33333333333333,4,3.23244047619048,3.2,-0.375,6.15,5.025,"Female",21,"Right handed","Junior College","Chinese","Buddhism","Singaporean","Yes"
3,24,"Social",4,"Direct","Truth","Who is your favourite teacher in secondary school?",NA,"None",4.16607981314883,73.2204989179045,3.37183768391151,NA,NA,33,28,10,71,33,48,81,NA,0.744511285450619,NA,-0.0420697674418605,0.0178333333333333,0.0208095238095238,43,18,21,4,1.83333333333333,2,3.14285714285714,3.8,3.75,3.33333333333333,4,3.23244047619048,3.2,-0.375,6.15,5.025,"Female",21,"Right handed","Junior College","Chinese","Buddhism","Singaporean","Yes"
3,25,"Social",22,"Indirect","Lie","Are you in your 1st year in NTU?",NA,"None",2.66669767722487,74.9093268270146,5.88674002490262,NA,NA,33,28,10,71,33,48,81,NA,0.744511285450619,NA,-0.0420697674418605,0.0178333333333333,0.0208095238095238,43,18,21,4,1.83333333333333,2,3.14285714285714,3.8,3.75,3.33333333333333,4,3.23244047619048,3.2,-0.375,6.15,5.025,"Female",21,"Right handed","Junior College","Chinese","Buddhism","Singaporean","Yes"
3,26,"Social",24,"Indirect","Lie","Is your mum 42 years old this year?",NA,"None",3.11625542026013,74.2755657941049,2.77670777147476,NA,NA,33,28,10,71,33,48,81,NA,0.744511285450619,NA,-0.0420697674418605,0.0178333333333333,0.0208095238095238,43,18,21,4,1.83333333333333,2,3.14285714285714,3.8,3.75,3.33333333333333,4,3.23244047619048,3.2,-0.375,6.15,5.025,"Female",21,"Right handed","Junior College","Chinese","Buddhism","Singaporean","Yes"
3,27,"Social",20,"Indirect","Truth","Is your house on the 6th floor of the building?",NA,"None",3.63271223939955,70.0139436095195,0.429914601665359,NA,NA,33,28,10,71,33,48,81,NA,0.744511285450619,NA,-0.0420697674418605,0.0178333333333333,0.0208095238095238,43,18,21,4,1.83333333333333,2,3.14285714285714,3.8,3.75,3.33333333333333,4,3.23244047619048,3.2,-0.375,6.15,5.025,"Female",21,"Right handed","Junior College","Chinese","Buddhism","Singaporean","Yes"
3,28,"Social",16,"Indirect","Lie","Do you have 3 siblings?",NA,"None",5.63264615414664,83.1030906284278,10.1952010835264,NA,NA,33,28,10,71,33,48,81,NA,0.744511285450619,NA,-0.0420697674418605,0.0178333333333333,0.0208095238095238,43,18,21,4,1.83333333333333,2,3.14285714285714,3.8,3.75,3.33333333333333,4,3.23244047619048,3.2,-0.375,6.15,5.025,"Female",21,"Right handed","Junior College","Chinese","Buddhism","Singaporean","Yes"
3,29,"Social",17,"Direct","Lie","Where did you celebrate your 21st birthday?",NA,"None",4.24934139382094,78.5069669132003,3.73597053676664,NA,NA,33,28,10,71,33,48,81,NA,0.744511285450619,NA,-0.0420697674418605,0.0178333333333333,0.0208095238095238,43,18,21,4,1.83333333333333,2,3.14285714285714,3.8,3.75,3.33333333333333,4,3.23244047619048,3.2,-0.375,6.15,5.025,"Female",21,"Right handed","Junior College","Chinese","Buddhism","Singaporean","Yes"
3,30,"Social",18,"Indirect","Truth","Was the last country you visited Australia?",NA,"None",3.49992717802525,78.8779743452915,4.52656357370263,NA,NA,33,28,10,71,33,48,81,NA,0.744511285450619,NA,-0.0420697674418605,0.0178333333333333,0.0208095238095238,43,18,21,4,1.83333333333333,2,3.14285714285714,3.8,3.75,3.33333333333333,4,3.23244047619048,3.2,-0.375,6.15,5.025,"Female",21,"Right handed","Junior College","Chinese","Buddhism","Singaporean","Yes"
3,31,"Social",16,"Indirect","Truth","Do you have 0 siblings?",NA,"None",2.69989715097472,79.6794583591806,3.37037183552121,NA,NA,33,28,10,71,33,48,81,NA,0.744511285450619,NA,-0.0420697674418605,0.0178333333333333,0.0208095238095238,43,18,21,4,1.83333333333333,2,3.14285714285714,3.8,3.75,3.33333333333333,4,3.23244047619048,3.2,-0.375,6.15,5.025,"Female",21,"Right handed","Junior College","Chinese","Buddhism","Singaporean","Yes"
3,32,"Social",12,"Direct","Truth","What was your favourite subject back in secondary school?",NA,"None",4.03291331790388,84.7265212101108,15.8444976217768,NA,NA,33,28,10,71,33,48,81,NA,0.744511285450619,NA,-0.0420697674418605,0.0178333333333333,0.0208095238095238,43,18,21,4,1.83333333333333,2,3.14285714285714,3.8,3.75,3.33333333333333,4,3.23244047619048,3.2,-0.375,6.15,5.025,"Female",21,"Right handed","Junior College","Chinese","Buddhism","Singaporean","Yes"
3,33,"Social",2,"Indirect","Lie","Are you from Naval Base Secondary School?",NA,"None",3.59967894153669,72.7892672248734,-0.481966090805017,NA,NA,33,28,10,71,33,48,81,NA,0.744511285450619,NA,-0.0420697674418605,0.0178333333333333,0.0208095238095238,43,18,21,4,1.83333333333333,2,3.14285714285714,3.8,3.75,3.33333333333333,4,3.23244047619048,3.2,-0.375,6.15,5.025,"Female",21,"Right handed","Junior College","Chinese","Buddhism","Singaporean","Yes"
3,34,"Social",19,"Direct","Lie","Which MRT station is closest to your house?",NA,"None",4.09962344262749,88.1889494952782,13.3291103325145,NA,NA,33,28,10,71,33,48,81,NA,0.744511285450619,NA,-0.0420697674418605,0.0178333333333333,0.0208095238095238,43,18,21,4,1.83333333333333,2,3.14285714285714,3.8,3.75,3.33333333333333,4,3.23244047619048,3.2,-0.375,6.15,5.025,"Female",21,"Right handed","Junior College","Chinese","Buddhism","Singaporean","Yes"
3,35,"Social",23,"Indirect","Truth","Are you studying Materials Science and Engineering course in NTU?",NA,"None",4.19932740693912,75.4801681777865,1.56345994603433,NA,NA,33,28,10,71,33,48,81,NA,0.744511285450619,NA,-0.0420697674418605,0.0178333333333333,0.0208095238095238,43,18,21,4,1.83333333333333,2,3.14285714285714,3.8,3.75,3.33333333333333,4,3.23244047619048,3.2,-0.375,6.15,5.025,"Female",21,"Right handed","Junior College","Chinese","Buddhism","Singaporean","Yes"
3,36,"Social",18,"Direct","Lie","What was the last country you visited?",NA,"None",3.73318388219923,82.8867982484805,1.75204122723576,NA,NA,33,28,10,71,33,48,81,NA,0.744511285450619,NA,-0.0420697674418605,0.0178333333333333,0.0208095238095238,43,18,21,4,1.83333333333333,2,3.14285714285714,3.8,3.75,3.33333333333333,4,3.23244047619048,3.2,-0.375,6.15,5.025,"Female",21,"Right handed","Junior College","Chinese","Buddhism","Singaporean","Yes"
3,37,"Social",30,"Direct","Truth","What brand of laptop do you mainly use?",NA,"None",3.79936532536522,73.7158138829802,3.33270047066151,NA,NA,33,28,10,71,33,48,81,NA,0.744511285450619,NA,-0.0420697674418605,0.0178333333333333,0.0208095238095238,43,18,21,4,1.83333333333333,2,3.14285714285714,3.8,3.75,3.33333333333333,4,3.23244047619048,3.2,-0.375,6.15,5.025,"Female",21,"Right handed","Junior College","Chinese","Buddhism","Singaporean","Yes"
3,38,"Social",6,"Indirect","Lie","Were you in the NPCC CCA during secondary school?",NA,"None",4.19964371761307,86.4126691417356,16.3874143443629,NA,NA,33,28,10,71,33,48,81,NA,0.744511285450619,NA,-0.0420697674418605,0.0178333333333333,0.0208095238095238,43,18,21,4,1.83333333333333,2,3.14285714285714,3.8,3.75,3.33333333333333,4,3.23244047619048,3.2,-0.375,6.15,5.025,"Female",21,"Right handed","Junior College","Chinese","Buddhism","Singaporean","Yes"
3,39,"Social",29,"Direct","Lie","What brand of handphone do you use?",NA,"None",3.36678281798959,71.4734848787478,0.61046112763087,NA,NA,33,28,10,71,33,48,81,NA,0.744511285450619,NA,-0.0420697674418605,0.0178333333333333,0.0208095238095238,43,18,21,4,1.83333333333333,2,3.14285714285714,3.8,3.75,3.33333333333333,4,3.23244047619048,3.2,-0.375,6.15,5.025,"Female",21,"Right handed","Junior College","Chinese","Buddhism","Singaporean","Yes"
3,40,"Social",12,"Direct","Lie","What was your favourite subject back in secondary school?",NA,"None",4.01600769674405,73.0675932544395,1.66007250507462,NA,NA,33,28,10,71,33,48,81,NA,0.744511285450619,NA,-0.0420697674418605,0.0178333333333333,0.0208095238095238,43,18,21,4,1.83333333333333,2,3.14285714285714,3.8,3.75,3.33333333333333,4,3.23244047619048,3.2,-0.375,6.15,5.025,"Female",21,"Right handed","Junior College","Chinese","Buddhism","Singaporean","Yes"
3,41,"Polygraph",2,"Indirect","Truth","Are you from Anderson Secondary School?",NA,"None",3.76629834296182,71.7106682258336,-0.215491028496473,NA,NA,33,28,10,71,33,48,81,NA,0.744511285450619,NA,-0.0420697674418605,0.0178333333333333,0.0208095238095238,43,18,21,4,1.83333333333333,2,3.14285714285714,3.8,3.75,3.33333333333333,4,3.23244047619048,3.2,-0.375,6.15,5.025,"Female",21,"Right handed","Junior College","Chinese","Buddhism","Singaporean","Yes"
3,42,"Polygraph",29,"Indirect","Truth","Do you use a Apple phone?",NA,"None",3.51647542603314,72.3553283639522,5.49275646477911,NA,NA,33,28,10,71,33,48,81,NA,0.744511285450619,NA,-0.0420697674418605,0.0178333333333333,0.0208095238095238,43,18,21,4,1.83333333333333,2,3.14285714285714,3.8,3.75,3.33333333333333,4,3.23244047619048,3.2,-0.375,6.15,5.025,"Female",21,"Right handed","Junior College","Chinese","Buddhism","Singaporean","Yes"
3,43,"Polygraph",28,"Direct","Truth","What religion do you practice?",NA,"None",2.84918747283518,79.2976374132297,8.03524496352789,NA,NA,33,28,10,71,33,48,81,NA,0.744511285450619,NA,-0.0420697674418605,0.0178333333333333,0.0208095238095238,43,18,21,4,1.83333333333333,2,3.14285714285714,3.8,3.75,3.33333333333333,4,3.23244047619048,3.2,-0.375,6.15,5.025,"Female",21,"Right handed","Junior College","Chinese","Buddhism","Singaporean","Yes"
3,44,"Polygraph",23,"Direct","Truth","What course are you studying?",NA,"None",4.63282708637416,68.0343367333919,-0.342286493642149,NA,NA,33,28,10,71,33,48,81,NA,0.744511285450619,NA,-0.0420697674418605,0.0178333333333333,0.0208095238095238,43,18,21,4,1.83333333333333,2,3.14285714285714,3.8,3.75,3.33333333333333,4,3.23244047619048,3.2,-0.375,6.15,5.025,"Female",21,"Right handed","Junior College","Chinese","Buddhism","Singaporean","Yes"
