"ID","trial","condition","inclusion","inclusion2","item","style","instruction","question","DT_confidence","DT_confidenceRT","DT_RT","yoni_affective","yoni_cognitive","yoni_physical","yoni_total","BES_cognitive","BES_affective","BES_total","HCT_confidence","HCT_accuracy","HCT_awareness","HCT_guess","HCT_noguess","HCT_onebreath","MAIA_noticing","MAIA_not_distracting","MAIA_not_worrying","MAIA_attention_regulation","MAIA_emotional_awareness","MAIA_self_regulation","MAIA_body_listening","MAIA_trusting","MAIA_total","lie_ability","lie_frequency","lie_negativity","lie_contextuality","Gender","Age","Handedness","Polyjc","Ethnicity","Religion","Nationality","RaisedinSG"
1,1,"Social",1,1,19,"Direct","TRUTH","Which MRT station is closest to your house?",0.287037037037037,"5.497205173363909",5.66611413878854,45,31,14,90,37,39,76,0.360740740740741,0.75130691069389,-0.775236333122807,69,6,48,2.5,2.5,1.8,2.14285714285714,2.6,2,3,3.33333333333333,2.48452380952381,-3.1,-7.7,4.975,10,"Female",20,"Right handed","Junior College","Chinese","Not religious","Singaporean","Yes"
1,2,"Social",1,1,18,"Direct","TRUTH","What was the last country you visited?",0.355555555555556,"4.735541135072708",4.16652316122781,45,31,14,90,37,39,76,0.360740740740741,0.75130691069389,-0.775236333122807,69,6,48,2.5,2.5,1.8,2.14285714285714,2.6,2,3,3.33333333333333,2.48452380952381,-3.1,-7.7,4.975,10,"Female",20,"Right handed","Junior College","Chinese","Not religious","Singaporean","Yes"
1,3,"Social",1,1,14,"Indirect","LIE","Is your favourite flavour Vanilla?",0.301851851851852,"4.499679518863559",3.83279673859943,45,31,14,90,37,39,76,0.360740740740741,0.75130691069389,-0.775236333122807,69,6,48,2.5,2.5,1.8,2.14285714285714,2.6,2,3,3.33333333333333,2.48452380952381,-3.1,-7.7,4.975,10,"Female",20,"Right handed","Junior College","Chinese","Not religious","Singaporean","Yes"
1,4,"Social",1,1,21,"Indirect","LIE","Are you from Nanyang Business School in NTU?",0.315740740740741,"3.76635416271165",3.94975439400878,45,31,14,90,37,39,76,0.360740740740741,0.75130691069389,-0.775236333122807,69,6,48,2.5,2.5,1.8,2.14285714285714,2.6,2,3,3.33333333333333,2.48452380952381,-3.1,-7.7,4.975,10,"Female",20,"Right handed","Junior College","Chinese","Not religious","Singaporean","Yes"
1,5,"Social",1,1,17,"Indirect","LIE","Did you celebrate your 21st birthday at MBS?",0.269444444444444,"2.2662168595707044",4.46599531383254,45,31,14,90,37,39,76,0.360740740740741,0.75130691069389,-0.775236333122807,69,6,48,2.5,2.5,1.8,2.14285714285714,2.6,2,3,3.33333333333333,2.48452380952381,-3.1,-7.7,4.975,10,"Female",20,"Right handed","Junior College","Chinese","Not religious","Singaporean","Yes"
1,6,"Social",1,1,20,"Direct","TRUTH","Which floor of the building is your house on?",0.315740740740741,"2.502733232686296",3.93290844175499,45,31,14,90,37,39,76,0.360740740740741,0.75130691069389,-0.775236333122807,69,6,48,2.5,2.5,1.8,2.14285714285714,2.6,2,3,3.33333333333333,2.48452380952381,-3.1,-7.7,4.975,10,"Female",20,"Right handed","Junior College","Chinese","Not religious","Singaporean","Yes"
1,7,"Social",1,1,26,"Direct","LIE","How often do you smoke?",0.321296296296296,"2.4826750905485824",2.86676164541859,45,31,14,90,37,39,76,0.360740740740741,0.75130691069389,-0.775236333122807,69,6,48,2.5,2.5,1.8,2.14285714285714,2.6,2,3,3.33333333333333,2.48452380952381,-3.1,-7.7,4.975,10,"Female",20,"Right handed","Junior College","Chinese","Not religious","Singaporean","Yes"
1,8,"Social",1,1,1,"Indirect","LIE","Are you from Temasek Primary School?",0.333333333333333,"2.200244900188409",3.8998013593955,45,31,14,90,37,39,76,0.360740740740741,0.75130691069389,-0.775236333122807,69,6,48,2.5,2.5,1.8,2.14285714285714,2.6,2,3,3.33333333333333,2.48452380952381,-3.1,-7.7,4.975,10,"Female",20,"Right handed","Junior College","Chinese","Not religious","Singaporean","Yes"
1,9,"Social",1,1,2,"Direct","TRUTH","Which secondary school did you attend?",0.268518518518518,"2.950067496742122",3.06631136778742,45,31,14,90,37,39,76,0.360740740740741,0.75130691069389,-0.775236333122807,69,6,48,2.5,2.5,1.8,2.14285714285714,2.6,2,3,3.33333333333333,2.48452380952381,-3.1,-7.7,4.975,10,"Female",20,"Right handed","Junior College","Chinese","Not religious","Singaporean","Yes"
1,10,"Social",1,1,23,"Indirect","TRUTH","Are you studying Linguistics and Multilingual Studies course in NTU?",0.5,"2.4004926877096295",4.86602797126397,45,31,14,90,37,39,76,0.360740740740741,0.75130691069389,-0.775236333122807,69,6,48,2.5,2.5,1.8,2.14285714285714,2.6,2,3,3.33333333333333,2.48452380952381,-3.1,-7.7,4.975,10,"Female",20,"Right handed","Junior College","Chinese","Not religious","Singaporean","Yes"
1,11,"Social",0,0,27,"Indirect","TRUTH","Do you drink alcohol socially?",0.507407407407407,"2.5355493476381525",3.39958161010873,45,31,14,90,37,39,76,0.360740740740741,0.75130691069389,-0.775236333122807,69,6,48,2.5,2.5,1.8,2.14285714285714,2.6,2,3,3.33333333333333,2.48452380952381,-3.1,-7.7,4.975,10,"Female",20,"Right handed","Junior College","Chinese","Not religious","Singaporean","Yes"
1,12,"Social",1,1,30,"Indirect","LIE","Do you use a Acer laptop?",0.413888888888889,"2.649663735413924",3.09967701660935,45,31,14,90,37,39,76,0.360740740740741,0.75130691069389,-0.775236333122807,69,6,48,2.5,2.5,1.8,2.14285714285714,2.6,2,3,3.33333333333333,2.48452380952381,-3.1,-7.7,4.975,10,"Female",20,"Right handed","Junior College","Chinese","Not religious","Singaporean","Yes"
1,13,"Social",1,1,16,"Indirect","TRUTH","Do you have 2 siblings?",0.522222222222222,"2.2009702334180474",3.03332458611112,45,31,14,90,37,39,76,0.360740740740741,0.75130691069389,-0.775236333122807,69,6,48,2.5,2.5,1.8,2.14285714285714,2.6,2,3,3.33333333333333,2.48452380952381,-3.1,-7.7,4.975,10,"Female",20,"Right handed","Junior College","Chinese","Not religious","Singaporean","Yes"
1,14,"Social",1,1,2,"Direct","LIE","Which secondary school did you attend?",0.334259259259259,"2.966867253417149",2.96632092772052,45,31,14,90,37,39,76,0.360740740740741,0.75130691069389,-0.775236333122807,69,6,48,2.5,2.5,1.8,2.14285714285714,2.6,2,3,3.33333333333333,2.48452380952381,-3.1,-7.7,4.975,10,"Female",20,"Right handed","Junior College","Chinese","Not religious","Singaporean","Yes"
1,15,"Social",1,1,7,"Direct","TRUTH","What is your favourite sport?",0.516666666666667,"2.4176247951108962",3.13297305139713,45,31,14,90,37,39,76,0.360740740740741,0.75130691069389,-0.775236333122807,69,6,48,2.5,2.5,1.8,2.14285714285714,2.6,2,3,3.33333333333333,2.48452380952381,-3.1,-7.7,4.975,10,"Female",20,"Right handed","Junior College","Chinese","Not religious","Singaporean","Yes"
1,16,"Social",1,1,23,"Direct","LIE","What course are you studying?",0.371296296296296,"2.7160979703767225",2.56619619985577,45,31,14,90,37,39,76,0.360740740740741,0.75130691069389,-0.775236333122807,69,6,48,2.5,2.5,1.8,2.14285714285714,2.6,2,3,3.33333333333333,2.48452380952381,-3.1,-7.7,4.975,10,"Female",20,"Right handed","Junior College","Chinese","Not religious","Singaporean","Yes"
1,17,"Social",1,0,26,"Indirect","TRUTH","Do you smoke regularly?",0.491666666666667,"2.866771911038086",3.28279205493163,45,31,14,90,37,39,76,0.360740740740741,0.75130691069389,-0.775236333122807,69,6,48,2.5,2.5,1.8,2.14285714285714,2.6,2,3,3.33333333333333,2.48452380952381,-3.1,-7.7,4.975,10,"Female",20,"Right handed","Junior College","Chinese","Not religious","Singaporean","Yes"
1,18,"Social",1,0,30,"Indirect","TRUTH","Do you use a Lenovo laptop?",0.352777777777778,"3.0834630442550406",3.43311600072775,45,31,14,90,37,39,76,0.360740740740741,0.75130691069389,-0.775236333122807,69,6,48,2.5,2.5,1.8,2.14285714285714,2.6,2,3,3.33333333333333,2.48452380952381,-3.1,-7.7,4.975,10,"Female",20,"Right handed","Junior College","Chinese","Not religious","Singaporean","Yes"
1,19,"Social",1,1,29,"Direct","TRUTH","What brand of handphone do you use?",0.52962962962963,"5.017176378169097",2.69962286518421,45,31,14,90,37,39,76,0.360740740740741,0.75130691069389,-0.775236333122807,69,6,48,2.5,2.5,1.8,2.14285714285714,2.6,2,3,3.33333333333333,2.48452380952381,-3.1,-7.7,4.975,10,"Female",20,"Right handed","Junior College","Chinese","Not religious","Singaporean","Yes"
1,20,"Social",1,1,22,"Indirect","TRUTH","Are you in your 1st year in NTU?",0.50462962962963,"2.3000290646450594",3.16671692568343,45,31,14,90,37,39,76,0.360740740740741,0.75130691069389,-0.775236333122807,69,6,48,2.5,2.5,1.8,2.14285714285714,2.6,2,3,3.33333333333333,2.48452380952381,-3.1,-7.7,4.975,10,"Female",20,"Right handed","Junior College","Chinese","Not religious","Singaporean","Yes"
1,21,"Social",1,1,7,"Indirect","LIE","Is your favourite sport Hockey?",0.367592592592593,"3.233461376046762",3.06648748810403,45,31,14,90,37,39,76,0.360740740740741,0.75130691069389,-0.775236333122807,69,6,48,2.5,2.5,1.8,2.14285714285714,2.6,2,3,3.33333333333333,2.48452380952381,-3.1,-7.7,4.975,10,"Female",20,"Right handed","Junior College","Chinese","Not religious","Singaporean","Yes"
1,22,"Social",1,1,14,"Direct","TRUTH","What is your favourite flavour?(E.g. chocolate, vanilla, milktea; it can be a complicated flavour)",0.366666666666667,"2.733399782096967",3.23339208285324,45,31,14,90,37,39,76,0.360740740740741,0.75130691069389,-0.775236333122807,69,6,48,2.5,2.5,1.8,2.14285714285714,2.6,2,3,3.33333333333333,2.48452380952381,-3.1,-7.7,4.975,10,"Female",20,"Right handed","Junior College","Chinese","Not religious","Singaporean","Yes"
1,23,"Social",1,1,20,"Indirect","LIE","Is your house on the 3rd floor of the building?",0.332407407407407,"2.549293145071715",3.59982426464558,45,31,14,90,37,39,76,0.360740740740741,0.75130691069389,-0.775236333122807,69,6,48,2.5,2.5,1.8,2.14285714285714,2.6,2,3,3.33333333333333,2.48452380952381,-3.1,-7.7,4.975,10,"Female",20,"Right handed","Junior College","Chinese","Not religious","Singaporean","Yes"
1,24,"Social",1,1,19,"Direct","LIE","Which MRT station is closest to your house?",0.362037037037037,"2.432671048445627",3.16629346704576,45,31,14,90,37,39,76,0.360740740740741,0.75130691069389,-0.775236333122807,69,6,48,2.5,2.5,1.8,2.14285714285714,2.6,2,3,3.33333333333333,2.48452380952381,-3.1,-7.7,4.975,10,"Female",20,"Right handed","Junior College","Chinese","Not religious","Singaporean","Yes"
1,25,"Social",1,1,10,"Indirect","LIE","Do you hate eating Eggplant the most?",0.358333333333333,"3.93473893776536",3.39977088326123,45,31,14,90,37,39,76,0.360740740740741,0.75130691069389,-0.775236333122807,69,6,48,2.5,2.5,1.8,2.14285714285714,2.6,2,3,3.33333333333333,2.48452380952381,-3.1,-7.7,4.975,10,"Female",20,"Right handed","Junior College","Chinese","Not religious","Singaporean","Yes"
1,26,"Social",1,1,22,"Indirect","LIE","Are you in your 3rd year in NTU?",0.359259259259259,"3.3327351446496323",3.23275368695613,45,31,14,90,37,39,76,0.360740740740741,0.75130691069389,-0.775236333122807,69,6,48,2.5,2.5,1.8,2.14285714285714,2.6,2,3,3.33333333333333,2.48452380952381,-3.1,-7.7,4.975,10,"Female",20,"Right handed","Junior College","Chinese","Not religious","Singaporean","Yes"
1,27,"Social",1,1,10,"Direct","TRUTH","What food do you hate the most?",0.388888888888889,"2.583148016827181",2.73278480477165,45,31,14,90,37,39,76,0.360740740740741,0.75130691069389,-0.775236333122807,69,6,48,2.5,2.5,1.8,2.14285714285714,2.6,2,3,3.33333333333333,2.48452380952381,-3.1,-7.7,4.975,10,"Female",20,"Right handed","Junior College","Chinese","Not religious","Singaporean","Yes"
1,28,"Social",1,0,6,"Indirect","TRUTH","Were you in the Volleyball CCA during secondary school?",0.398148148148148,"2.5507258464349434",4.36596926464699,45,31,14,90,37,39,76,0.360740740740741,0.75130691069389,-0.775236333122807,69,6,48,2.5,2.5,1.8,2.14285714285714,2.6,2,3,3.33333333333333,2.48452380952381,-3.1,-7.7,4.975,10,"Female",20,"Right handed","Junior College","Chinese","Not religious","Singaporean","Yes"
1,29,"Social",1,0,27,"Direct","LIE","How frequently do you drink alcohol?",0.337037037037037,"2.9829169751610607",2.90008398599457,45,31,14,90,37,39,76,0.360740740740741,0.75130691069389,-0.775236333122807,69,6,48,2.5,2.5,1.8,2.14285714285714,2.6,2,3,3.33333333333333,2.48452380952381,-3.1,-7.7,4.975,10,"Female",20,"Right handed","Junior College","Chinese","Not religious","Singaporean","Yes"
1,30,"Social",1,1,15,"Indirect","LIE","Are you from Hwa Chong Institution (College)?",0.425,"2.7493221454788",3.13310297613498,45,31,14,90,37,39,76,0.360740740740741,0.75130691069389,-0.775236333122807,69,6,48,2.5,2.5,1.8,2.14285714285714,2.6,2,3,3.33333333333333,2.48452380952381,-3.1,-7.7,4.975,10,"Female",20,"Right handed","Junior College","Chinese","Not religious","Singaporean","Yes"
1,31,"Social",1,1,17,"Direct","TRUTH","Where did you celebrate your 21st birthday?",0.385185185185185,"3.9662163462489843",3.49973630078603,45,31,14,90,37,39,76,0.360740740740741,0.75130691069389,-0.775236333122807,69,6,48,2.5,2.5,1.8,2.14285714285714,2.6,2,3,3.33333333333333,2.48452380952381,-3.1,-7.7,4.975,10,"Female",20,"Right handed","Junior College","Chinese","Not religious","Singaporean","Yes"
1,32,"Social",1,1,21,"Indirect","TRUTH","Are you from the School of Humanities in NTU?",0.385185185185185,"2.0015953481197357",3.89967368019279,45,31,14,90,37,39,76,0.360740740740741,0.75130691069389,-0.775236333122807,69,6,48,2.5,2.5,1.8,2.14285714285714,2.6,2,3,3.33333333333333,2.48452380952381,-3.1,-7.7,4.975,10,"Female",20,"Right handed","Junior College","Chinese","Not religious","Singaporean","Yes"
1,33,"Social",1,1,28,"Direct","LIE","What religion do you practice?",0.492592592592593,"1.9817470104899257",2.69978294544853,45,31,14,90,37,39,76,0.360740740740741,0.75130691069389,-0.775236333122807,69,6,48,2.5,2.5,1.8,2.14285714285714,2.6,2,3,3.33333333333333,2.48452380952381,-3.1,-7.7,4.975,10,"Female",20,"Right handed","Junior College","Chinese","Not religious","Singaporean","Yes"
1,34,"Social",1,1,28,"Direct","TRUTH","What religion do you practice?",0.526851851851852,"1.8986785525921732",2.3333392146742,45,31,14,90,37,39,76,0.360740740740741,0.75130691069389,-0.775236333122807,69,6,48,2.5,2.5,1.8,2.14285714285714,2.6,2,3,3.33333333333333,2.48452380952381,-3.1,-7.7,4.975,10,"Female",20,"Right handed","Junior College","Chinese","Not religious","Singaporean","Yes"
1,35,"Social",1,1,1,"Indirect","TRUTH","Are you from Tao Nan Primary School?",0.490740740740741,"2.3158599995076656",3.20006075990386,45,31,14,90,37,39,76,0.360740740740741,0.75130691069389,-0.775236333122807,69,6,48,2.5,2.5,1.8,2.14285714285714,2.6,2,3,3.33333333333333,2.48452380952381,-3.1,-7.7,4.975,10,"Female",20,"Right handed","Junior College","Chinese","Not religious","Singaporean","Yes"
1,36,"Social",1,1,6,"Indirect","LIE","Were you in the Infocomm Club CCA during secondary school?",0.332407407407407,"2.7001419228035957",3.66596464510076,45,31,14,90,37,39,76,0.360740740740741,0.75130691069389,-0.775236333122807,69,6,48,2.5,2.5,1.8,2.14285714285714,2.6,2,3,3.33333333333333,2.48452380952381,-3.1,-7.7,4.975,10,"Female",20,"Right handed","Junior College","Chinese","Not religious","Singaporean","Yes"
1,37,"Social",1,1,18,"Indirect","LIE","Was the last country you visited Malaysia?",0.488888888888889,"2.033594701322727",3.86642384098377,45,31,14,90,37,39,76,0.360740740740741,0.75130691069389,-0.775236333122807,69,6,48,2.5,2.5,1.8,2.14285714285714,2.6,2,3,3.33333333333333,2.48452380952381,-3.1,-7.7,4.975,10,"Female",20,"Right handed","Junior College","Chinese","Not religious","Singaporean","Yes"
1,38,"Social",1,1,16,"Indirect","LIE","Do you have 4 siblings?",0.457407407407407,"5.133766394574195",2.59975785878487,45,31,14,90,37,39,76,0.360740740740741,0.75130691069389,-0.775236333122807,69,6,48,2.5,2.5,1.8,2.14285714285714,2.6,2,3,3.33333333333333,2.48452380952381,-3.1,-7.7,4.975,10,"Female",20,"Right handed","Junior College","Chinese","Not religious","Singaporean","Yes"
1,39,"Social",1,1,29,"Direct","LIE","What brand of handphone do you use?",0.35462962962963,"3.1340660236310214",2.7998593604425,45,31,14,90,37,39,76,0.360740740740741,0.75130691069389,-0.775236333122807,69,6,48,2.5,2.5,1.8,2.14285714285714,2.6,2,3,3.33333333333333,2.48452380952381,-3.1,-7.7,4.975,10,"Female",20,"Right handed","Junior College","Chinese","Not religious","Singaporean","Yes"
1,40,"Social",1,1,15,"Indirect","TRUTH","Are you from Singapore Polytechnic?",0.517592592592593,"2.6830303465249017",3.26682702486869,45,31,14,90,37,39,76,0.360740740740741,0.75130691069389,-0.775236333122807,69,6,48,2.5,2.5,1.8,2.14285714285714,2.6,2,3,3.33333333333333,2.48452380952381,-3.1,-7.7,4.975,10,"Female",20,"Right handed","Junior College","Chinese","Not religious","Singaporean","Yes"
1,41,"Polygraph",1,1,30,"Direct","LIE","What brand of laptop do you mainly use?",0.49537037037037,"3.001239899545908",4.06622090167366,45,31,14,90,37,39,76,0.360740740740741,0.75130691069389,-0.775236333122807,69,6,48,2.5,2.5,1.8,2.14285714285714,2.6,2,3,3.33333333333333,2.48452380952381,-3.1,-7.7,4.975,10,"Female",20,"Right handed","Junior College","Chinese","Not religious","Singaporean","Yes"
1,42,"Polygraph",1,1,18,"Indirect","TRUTH","Was the last country you visited Australia?",0.323148148148148,"2.0324317943304777",4.19954138144385,45,31,14,90,37,39,76,0.360740740740741,0.75130691069389,-0.775236333122807,69,6,48,2.5,2.5,1.8,2.14285714285714,2.6,2,3,3.33333333333333,2.48452380952381,-3.1,-7.7,4.975,10,"Female",20,"Right handed","Junior College","Chinese","Not religious","Singaporean","Yes"
1,43,"Polygraph",1,1,7,"Direct","LIE","What is your favourite sport?",0.349074074074074,"2.5994142798008397",3.49967246130109,45,31,14,90,37,39,76,0.360740740740741,0.75130691069389,-0.775236333122807,69,6,48,2.5,2.5,1.8,2.14285714285714,2.6,2,3,3.33333333333333,2.48452380952381,-3.1,-7.7,4.975,10,"Female",20,"Right handed","Junior College","Chinese","Not religious","Singaporean","Yes"
1,44,"Polygraph",1,1,1,"Direct","TRUTH","Which primary school are you from?",0.498148148148148,"2.217066150624305",3.08302386640571,45,31,14,90,37,39,76,0.360740740740741,0.75130691069389,-0.775236333122807,69,6,48,2.5,2.5,1.8,2.14285714285714,2.6,2,3,3.33333333333333,2.48452380952381,-3.1,-7.7,4.975,10,"Female",20,"Right handed","Junior College","Chinese","Not religious","Singaporean","Yes"
1,45,"Polygraph",1,1,23,"Direct","TRUTH","What course are you studying?",0.486111111111111,"2.4001378807006404",4.46619100298267,45,31,14,90,37,39,76,0.360740740740741,0.75130691069389,-0.775236333122807,69,6,48,2.5,2.5,1.8,2.14285714285714,2.6,2,3,3.33333333333333,2.48452380952381,-3.1,-7.7,4.975,10,"Female",20,"Right handed","Junior College","Chinese","Not religious","Singaporean","Yes"
1,46,"Polygraph",1,1,7,"Indirect","TRUTH","Is your favourite sport Kayaking?",0.381481481481481,"7.3667773647466674",3.3329196057748,45,31,14,90,37,39,76,0.360740740740741,0.75130691069389,-0.775236333122807,69,6,48,2.5,2.5,1.8,2.14285714285714,2.6,2,3,3.33333333333333,2.48452380952381,-3.1,-7.7,4.975,10,"Female",20,"Right handed","Junior College","Chinese","Not religious","Singaporean","Yes"
1,47,"Polygraph",1,1,2,"Indirect","TRUTH","Are you from Serangoon Secondary School?",0.689814814814815,"8.182355700060725",4.21630264190026,45,31,14,90,37,39,76,0.360740740740741,0.75130691069389,-0.775236333122807,69,6,48,2.5,2.5,1.8,2.14285714285714,2.6,2,3,3.33333333333333,2.48452380952381,-3.1,-7.7,4.975,10,"Female",20,"Right handed","Junior College","Chinese","Not religious","Singaporean","Yes"
1,48,"Polygraph",1,1,27,"Indirect","LIE","Do you drink alcohol rarely?",0.412037037037037,"3.7680191249819472",3.83329654799309,45,31,14,90,37,39,76,0.360740740740741,0.75130691069389,-0.775236333122807,69,6,48,2.5,2.5,1.8,2.14285714285714,2.6,2,3,3.33333333333333,2.48452380952381,-3.1,-7.7,4.975,10,"Female",20,"Right handed","Junior College","Chinese","Not religious","Singaporean","Yes"
1,49,"Polygraph",1,1,23,"Indirect","LIE","Are you studying Sociology course in NTU?",0.337037037037037,"2.551960292388685",4.13312222424429,45,31,14,90,37,39,76,0.360740740740741,0.75130691069389,-0.775236333122807,69,6,48,2.5,2.5,1.8,2.14285714285714,2.6,2,3,3.33333333333333,2.48452380952381,-3.1,-7.7,4.975,10,"Female",20,"Right handed","Junior College","Chinese","Not religious","Singaporean","Yes"
1,50,"Polygraph",1,1,19,"Indirect","LIE","Is the Canberra station the closest MRT to your house?",0.37037037037037,"1.9001093292608857",4.71634113823529,45,31,14,90,37,39,76,0.360740740740741,0.75130691069389,-0.775236333122807,69,6,48,2.5,2.5,1.8,2.14285714285714,2.6,2,3,3.33333333333333,2.48452380952381,-3.1,-7.7,4.975,10,"Female",20,"Right handed","Junior College","Chinese","Not religious","Singaporean","Yes"
1,51,"Polygraph",1,1,30,"Direct","TRUTH","What brand of laptop do you mainly use?",0.519444444444444,"1.430953795555979",3.66639836935792,45,31,14,90,37,39,76,0.360740740740741,0.75130691069389,-0.775236333122807,69,6,48,2.5,2.5,1.8,2.14285714285714,2.6,2,3,3.33333333333333,2.48452380952381,-3.1,-7.7,4.975,10,"Female",20,"Right handed","Junior College","Chinese","Not religious","Singaporean","Yes"
1,52,"Polygraph",1,1,22,"Direct","TRUTH","Which year in NTU are you currently in? (Eg. 1, 2, 3, 4)",0.503703703703704,"2.252473062253557",3.28305094200186,45,31,14,90,37,39,76,0.360740740740741,0.75130691069389,-0.775236333122807,69,6,48,2.5,2.5,1.8,2.14285714285714,2.6,2,3,3.33333333333333,2.48452380952381,-3.1,-7.7,4.975,10,"Female",20,"Right handed","Junior College","Chinese","Not religious","Singaporean","Yes"
1,53,"Polygraph",0,0,21,"Direct","LIE","Which school in NTU are you from? (Eg. NBS, SSS, SOH)",0.330555555555556,"2.3834468758432195",3.59949159296229,45,31,14,90,37,39,76,0.360740740740741,0.75130691069389,-0.775236333122807,69,6,48,2.5,2.5,1.8,2.14285714285714,2.6,2,3,3.33333333333333,2.48452380952381,-3.1,-7.7,4.975,10,"Female",20,"Right handed","Junior College","Chinese","Not religious","Singaporean","Yes"
1,54,"Polygraph",1,1,6,"Direct","LIE","What CCA (Co-curricular Activity) did you join in secondary school?",0.5,"2.5678431971464306",4.36659097881056,45,31,14,90,37,39,76,0.360740740740741,0.75130691069389,-0.775236333122807,69,6,48,2.5,2.5,1.8,2.14285714285714,2.6,2,3,3.33333333333333,2.48452380952381,-3.1,-7.7,4.975,10,"Female",20,"Right handed","Junior College","Chinese","Not religious","Singaporean","Yes"
1,55,"Polygraph",1,1,26,"Direct","TRUTH","How often do you smoke?",0.839814814814815,"6.18267938925419",2.69964275485836,45,31,14,90,37,39,76,0.360740740740741,0.75130691069389,-0.775236333122807,69,6,48,2.5,2.5,1.8,2.14285714285714,2.6,2,3,3.33333333333333,2.48452380952381,-3.1,-7.7,4.975,10,"Female",20,"Right handed","Junior College","Chinese","Not religious","Singaporean","Yes"
1,56,"Polygraph",1,1,10,"Indirect","TRUTH","Do you hate eating cheese the most?",0.769444444444444,"4.3333129088860005",4.1825401611859,45,31,14,90,37,39,76,0.360740740740741,0.75130691069389,-0.775236333122807,69,6,48,2.5,2.5,1.8,2.14285714285714,2.6,2,3,3.33333333333333,2.48452380952381,-3.1,-7.7,4.975,10,"Female",20,"Right handed","Junior College","Chinese","Not religious","Singaporean","Yes"
1,57,"Polygraph",1,1,14,"Direct","LIE","What is your favourite flavour?(E.g. chocolate, vanilla, milktea; it can be a complicated flavour)",0.518518518518518,"2.6335928407497704",4.532735914574,45,31,14,90,37,39,76,0.360740740740741,0.75130691069389,-0.775236333122807,69,6,48,2.5,2.5,1.8,2.14285714285714,2.6,2,3,3.33333333333333,2.48452380952381,-3.1,-7.7,4.975,10,"Female",20,"Right handed","Junior College","Chinese","Not religious","Singaporean","Yes"
1,58,"Polygraph",1,1,28,"Indirect","LIE","Is your religion Catholicism?",0.400925925925926,"2.7003575016278774",4.29958186671138,45,31,14,90,37,39,76,0.360740740740741,0.75130691069389,-0.775236333122807,69,6,48,2.5,2.5,1.8,2.14285714285714,2.6,2,3,3.33333333333333,2.48452380952381,-3.1,-7.7,4.975,10,"Female",20,"Right handed","Junior College","Chinese","Not religious","Singaporean","Yes"
1,59,"Polygraph",1,1,16,"Direct","TRUTH","How many siblings do you have? (Eg. 0, 1, 2, 3)",0.790740740740741,"3.186288411146961",3.33320928981993,45,31,14,90,37,39,76,0.360740740740741,0.75130691069389,-0.775236333122807,69,6,48,2.5,2.5,1.8,2.14285714285714,2.6,2,3,3.33333333333333,2.48452380952381,-3.1,-7.7,4.975,10,"Female",20,"Right handed","Junior College","Chinese","Not religious","Singaporean","Yes"
1,60,"Polygraph",1,1,16,"Direct","LIE","How many siblings do you have? (Eg. 0, 1, 2, 3)",0.366666666666667,"2.9161064395448193",4.59950667072553,45,31,14,90,37,39,76,0.360740740740741,0.75130691069389,-0.775236333122807,69,6,48,2.5,2.5,1.8,2.14285714285714,2.6,2,3,3.33333333333333,2.48452380952381,-3.1,-7.7,4.975,10,"Female",20,"Right handed","Junior College","Chinese","Not religious","Singaporean","Yes"
1,61,"Polygraph",1,1,26,"Indirect","LIE","Do you not smoke at all?",0.353703703703704,"3.3670667280675843",3.26671955618076,45,31,14,90,37,39,76,0.360740740740741,0.75130691069389,-0.775236333122807,69,6,48,2.5,2.5,1.8,2.14285714285714,2.6,2,3,3.33333333333333,2.48452380952381,-3.1,-7.7,4.975,10,"Female",20,"Right handed","Junior College","Chinese","Not religious","Singaporean","Yes"
1,62,"Polygraph",1,1,6,"Direct","TRUTH","What CCA (Co-curricular Activity) did you join in secondary school?",0.54537037037037,"2.668140965513885",5.96595553425141,45,31,14,90,37,39,76,0.360740740740741,0.75130691069389,-0.775236333122807,69,6,48,2.5,2.5,1.8,2.14285714285714,2.6,2,3,3.33333333333333,2.48452380952381,-3.1,-7.7,4.975,10,"Female",20,"Right handed","Junior College","Chinese","Not religious","Singaporean","Yes"
1,63,"Polygraph",1,1,22,"Direct","LIE","Which year in NTU are you currently in? (Eg. 1, 2, 3, 4)",0.477777777777778,"1.7811816290486604",3.99999358400237,45,31,14,90,37,39,76,0.360740740740741,0.75130691069389,-0.775236333122807,69,6,48,2.5,2.5,1.8,2.14285714285714,2.6,2,3,3.33333333333333,2.48452380952381,-3.1,-7.7,4.975,10,"Female",20,"Right handed","Junior College","Chinese","Not religious","Singaporean","Yes"
1,64,"Polygraph",1,1,20,"Direct","LIE","Which floor of the building is your house on?",0.356481481481482,"2.9829570753499866",4.99999743350782,45,31,14,90,37,39,76,0.360740740740741,0.75130691069389,-0.775236333122807,69,6,48,2.5,2.5,1.8,2.14285714285714,2.6,2,3,3.33333333333333,2.48452380952381,-3.1,-7.7,4.975,10,"Female",20,"Right handed","Junior College","Chinese","Not religious","Singaporean","Yes"
1,65,"Polygraph",1,1,29,"Indirect","LIE","Do you use a Samsung phone?",0.302777777777778,"2.566338635981083",3.34975272591691,45,31,14,90,37,39,76,0.360740740740741,0.75130691069389,-0.775236333122807,69,6,48,2.5,2.5,1.8,2.14285714285714,2.6,2,3,3.33333333333333,2.48452380952381,-3.1,-7.7,4.975,10,"Female",20,"Right handed","Junior College","Chinese","Not religious","Singaporean","Yes"
1,66,"Polygraph",0,0,27,"Direct","TRUTH","How frequently do you drink alcohol?",0.550925925925926,"3.2661738720489666",3.43281990045216,45,31,14,90,37,39,76,0.360740740740741,0.75130691069389,-0.775236333122807,69,6,48,2.5,2.5,1.8,2.14285714285714,2.6,2,3,3.33333333333333,2.48452380952381,-3.1,-7.7,4.975,10,"Female",20,"Right handed","Junior College","Chinese","Not religious","Singaporean","Yes"
1,67,"Polygraph",1,1,20,"Indirect","TRUTH","Is your house on the 12th floor of the building?",0.656481481481481,"2.434086105786264",4.26612222299445,45,31,14,90,37,39,76,0.360740740740741,0.75130691069389,-0.775236333122807,69,6,48,2.5,2.5,1.8,2.14285714285714,2.6,2,3,3.33333333333333,2.48452380952381,-3.1,-7.7,4.975,10,"Female",20,"Right handed","Junior College","Chinese","Not religious","Singaporean","Yes"
1,68,"Polygraph",1,1,2,"Indirect","LIE","Are you from Nanyang Girls' High School?",0.537037037037037,"2.4844407845521346",3.81675567850471,45,31,14,90,37,39,76,0.360740740740741,0.75130691069389,-0.775236333122807,69,6,48,2.5,2.5,1.8,2.14285714285714,2.6,2,3,3.33333333333333,2.48452380952381,-3.1,-7.7,4.975,10,"Female",20,"Right handed","Junior College","Chinese","Not religious","Singaporean","Yes"
1,69,"Polygraph",1,1,15,"Direct","TRUTH","Which polytechnic or junior college are you from?",0.701851851851852,"2.749000701936893",3.54997035779525,45,31,14,90,37,39,76,0.360740740740741,0.75130691069389,-0.775236333122807,69,6,48,2.5,2.5,1.8,2.14285714285714,2.6,2,3,3.33333333333333,2.48452380952381,-3.1,-7.7,4.975,10,"Female",20,"Right handed","Junior College","Chinese","Not religious","Singaporean","Yes"
1,70,"Polygraph",1,1,28,"Indirect","TRUTH","Is your religion a free-thinker?",0.675925925925926,"2.533170280396007",3.63340356748085,45,31,14,90,37,39,76,0.360740740740741,0.75130691069389,-0.775236333122807,69,6,48,2.5,2.5,1.8,2.14285714285714,2.6,2,3,3.33333333333333,2.48452380952381,-3.1,-7.7,4.975,10,"Female",20,"Right handed","Junior College","Chinese","Not religious","Singaporean","Yes"
1,71,"Polygraph",1,1,10,"Direct","LIE","What food do you hate the most?",0.689814814814815,"3.933612602064386",3.64950012636837,45,31,14,90,37,39,76,0.360740740740741,0.75130691069389,-0.775236333122807,69,6,48,2.5,2.5,1.8,2.14285714285714,2.6,2,3,3.33333333333333,2.48452380952381,-3.1,-7.7,4.975,10,"Female",20,"Right handed","Junior College","Chinese","Not religious","Singaporean","Yes"
1,72,"Polygraph",1,1,17,"Direct","LIE","Where did you celebrate your 21st birthday?",0.27037037037037,"4.53323411999736",5.51627620786894,45,31,14,90,37,39,76,0.360740740740741,0.75130691069389,-0.775236333122807,69,6,48,2.5,2.5,1.8,2.14285714285714,2.6,2,3,3.33333333333333,2.48452380952381,-3.1,-7.7,4.975,10,"Female",20,"Right handed","Junior College","Chinese","Not religious","Singaporean","Yes"
1,73,"Polygraph",1,1,19,"Indirect","TRUTH","Is the Bedok station the closest MRT to your house?",0.672222222222222,"2.0341580295935273",4.71647266694345,45,31,14,90,37,39,76,0.360740740740741,0.75130691069389,-0.775236333122807,69,6,48,2.5,2.5,1.8,2.14285714285714,2.6,2,3,3.33333333333333,2.48452380952381,-3.1,-7.7,4.975,10,"Female",20,"Right handed","Junior College","Chinese","Not religious","Singaporean","Yes"
1,74,"Polygraph",1,1,29,"Indirect","TRUTH","Do you use a Xiaomi phone?",0.689814814814815,"2.5672920594224706",4.01620723551605,45,31,14,90,37,39,76,0.360740740740741,0.75130691069389,-0.775236333122807,69,6,48,2.5,2.5,1.8,2.14285714285714,2.6,2,3,3.33333333333333,2.48452380952381,-3.1,-7.7,4.975,10,"Female",20,"Right handed","Junior College","Chinese","Not religious","Singaporean","Yes"
1,75,"Polygraph",1,1,14,"Indirect","TRUTH","Is your favourite flavour Chocolate?",0.705555555555555,"1.9648022511973977",4.46626478736289,45,31,14,90,37,39,76,0.360740740740741,0.75130691069389,-0.775236333122807,69,6,48,2.5,2.5,1.8,2.14285714285714,2.6,2,3,3.33333333333333,2.48452380952381,-3.1,-7.7,4.975,10,"Female",20,"Right handed","Junior College","Chinese","Not religious","Singaporean","Yes"
1,76,"Polygraph",1,1,15,"Direct","LIE","Which polytechnic or junior college are you from?",0.538888888888889,"2.6670627500861883",3.36621018697042,45,31,14,90,37,39,76,0.360740740740741,0.75130691069389,-0.775236333122807,69,6,48,2.5,2.5,1.8,2.14285714285714,2.6,2,3,3.33333333333333,2.48452380952381,-3.1,-7.7,4.975,10,"Female",20,"Right handed","Junior College","Chinese","Not religious","Singaporean","Yes"
1,77,"Polygraph",1,1,17,"Indirect","TRUTH","Did you not celebrate your 21st birthday?",0.426851851851852,"4.716262541827746",4.83317656803411,45,31,14,90,37,39,76,0.360740740740741,0.75130691069389,-0.775236333122807,69,6,48,2.5,2.5,1.8,2.14285714285714,2.6,2,3,3.33333333333333,2.48452380952381,-3.1,-7.7,4.975,10,"Female",20,"Right handed","Junior College","Chinese","Not religious","Singaporean","Yes"
1,78,"Polygraph",1,1,18,"Direct","LIE","What was the last country you visited?",0.686111111111111,"3.150607213960029",4.04951578145847,45,31,14,90,37,39,76,0.360740740740741,0.75130691069389,-0.775236333122807,69,6,48,2.5,2.5,1.8,2.14285714285714,2.6,2,3,3.33333333333333,2.48452380952381,-3.1,-7.7,4.975,10,"Female",20,"Right handed","Junior College","Chinese","Not religious","Singaporean","Yes"
1,79,"Polygraph",1,1,21,"Direct","TRUTH","Which school in NTU are you from? (Eg. NBS, SSS, SOH)",0.637962962962963,"0.9485536323627457",4.09979058045428,45,31,14,90,37,39,76,0.360740740740741,0.75130691069389,-0.775236333122807,69,6,48,2.5,2.5,1.8,2.14285714285714,2.6,2,3,3.33333333333333,2.48452380952381,-3.1,-7.7,4.975,10,"Female",20,"Right handed","Junior College","Chinese","Not religious","Singaporean","Yes"
1,80,"Polygraph",1,1,1,"Direct","LIE","Which primary school are you from?",0.351851851851852,"3.6827599104726687",4.28302976908162,45,31,14,90,37,39,76,0.360740740740741,0.75130691069389,-0.775236333122807,69,6,48,2.5,2.5,1.8,2.14285714285714,2.6,2,3,3.33333333333333,2.48452380952381,-3.1,-7.7,4.975,10,"Female",20,"Right handed","Junior College","Chinese","Not religious","Singaporean","Yes"
2,1,"Social",1,0,6,"Indirect","LIE","Were you in the Swimming CCA during secondary school?",0.525925925925926,"7.802066477946937",6.3152106963098,44,34,12,90,36,33,69,0.170740740740741,0.657568185846362,0.80245743497113,46,24,18,3.25,0.166666666666667,3.8,1.28571428571429,4.2,2,0.333333333333333,4,2.37946428571429,-6.75,-0.525,2.8,1.65,"Female",20,"Right handed","Polytechnic","Chinese","Buddhism","Singaporean","Yes"
2,2,"Social",1,1,21,"Indirect","TRUTH","Are you from School of Humanities in NTU?",0.996296296296296,"7.269354944117367",7.69876504084095,44,34,12,90,36,33,69,0.170740740740741,0.657568185846362,0.80245743497113,46,24,18,3.25,0.166666666666667,3.8,1.28571428571429,4.2,2,0.333333333333333,4,2.37946428571429,-6.75,-0.525,2.8,1.65,"Female",20,"Right handed","Polytechnic","Chinese","Buddhism","Singaporean","Yes"
2,3,"Social",1,1,29,"Direct","TRUTH","What brand of handphone do you use?",0.996296296296296,"3.616894778329879",5.26606415770948,44,34,12,90,36,33,69,0.170740740740741,0.657568185846362,0.80245743497113,46,24,18,3.25,0.166666666666667,3.8,1.28571428571429,4.2,2,0.333333333333333,4,2.37946428571429,-6.75,-0.525,2.8,1.65,"Female",20,"Right handed","Polytechnic","Chinese","Buddhism","Singaporean","Yes"
2,4,"Social",1,1,22,"Direct","LIE","Which year in NTU are you currently in? (Eg. 1, 2, 3, 4)",0,"8.766320478636771",5.19983170717023,44,34,12,90,36,33,69,0.170740740740741,0.657568185846362,0.80245743497113,46,24,18,3.25,0.166666666666667,3.8,1.28571428571429,4.2,2,0.333333333333333,4,2.37946428571429,-6.75,-0.525,2.8,1.65,"Female",20,"Right handed","Polytechnic","Chinese","Buddhism","Singaporean","Yes"
2,5,"Social",1,1,5,"Direct","LIE","What is your favourite country you visited? ",0.218518518518519,"4.799962658667937",5.69959720107727,44,34,12,90,36,33,69,0.170740740740741,0.657568185846362,0.80245743497113,46,24,18,3.25,0.166666666666667,3.8,1.28571428571429,4.2,2,0.333333333333333,4,2.37946428571429,-6.75,-0.525,2.8,1.65,"Female",20,"Right handed","Polytechnic","Chinese","Buddhism","Singaporean","Yes"
2,6,"Social",1,1,7,"Indirect","TRUTH","Is your favourite sport Netball?",0.860185185185185,"3.0993507609236985",7.64887552522123,44,34,12,90,36,33,69,0.170740740740741,0.657568185846362,0.80245743497113,46,24,18,3.25,0.166666666666667,3.8,1.28571428571429,4.2,2,0.333333333333333,4,2.37946428571429,-6.75,-0.525,2.8,1.65,"Female",20,"Right handed","Polytechnic","Chinese","Buddhism","Singaporean","Yes"
2,7,"Social",1,1,30,"Direct","TRUTH","What brand of laptop do you mainly use?",0.999074074074074,"2.2504388571251184",4.23286404297687,44,34,12,90,36,33,69,0.170740740740741,0.657568185846362,0.80245743497113,46,24,18,3.25,0.166666666666667,3.8,1.28571428571429,4.2,2,0.333333333333333,4,2.37946428571429,-6.75,-0.525,2.8,1.65,"Female",20,"Right handed","Polytechnic","Chinese","Buddhism","Singaporean","Yes"
2,8,"Social",1,1,15,"Indirect","LIE","Are you from National Junior College?",0.160185185185185,"4.683856090996414",5.38283799379133,44,34,12,90,36,33,69,0.170740740740741,0.657568185846362,0.80245743497113,46,24,18,3.25,0.166666666666667,3.8,1.28571428571429,4.2,2,0.333333333333333,4,2.37946428571429,-6.75,-0.525,2.8,1.65,"Female",20,"Right handed","Polytechnic","Chinese","Buddhism","Singaporean","Yes"
2,9,"Social",1,1,10,"Direct","TRUTH","What food do you hate the most?",0.900925925925926,"3.9500896320678294",6.23311073938385,44,34,12,90,36,33,69,0.170740740740741,0.657568185846362,0.80245743497113,46,24,18,3.25,0.166666666666667,3.8,1.28571428571429,4.2,2,0.333333333333333,4,2.37946428571429,-6.75,-0.525,2.8,1.65,"Female",20,"Right handed","Polytechnic","Chinese","Buddhism","Singaporean","Yes"
2,10,"Social",0,0,23,"Direct","LIE","What course are you studying?",0.486111111111111,"2.3499814574606717",2.19962318614125,44,34,12,90,36,33,69,0.170740740740741,0.657568185846362,0.80245743497113,46,24,18,3.25,0.166666666666667,3.8,1.28571428571429,4.2,2,0.333333333333333,4,2.37946428571429,-6.75,-0.525,2.8,1.65,"Female",20,"Right handed","Polytechnic","Chinese","Buddhism","Singaporean","Yes"
2,11,"Social",1,1,10,"Direct","LIE","What food do you hate the most?",0.110185185185185,"4.283879573456943",5.26632785703987,44,34,12,90,36,33,69,0.170740740740741,0.657568185846362,0.80245743497113,46,24,18,3.25,0.166666666666667,3.8,1.28571428571429,4.2,2,0.333333333333333,4,2.37946428571429,-6.75,-0.525,2.8,1.65,"Female",20,"Right handed","Polytechnic","Chinese","Buddhism","Singaporean","Yes"
2,12,"Social",1,1,30,"Indirect","LIE","Do you use a Dell laptop?",0.0703703703703704,"4.183841654798016",4.23288329108618,44,34,12,90,36,33,69,0.170740740740741,0.657568185846362,0.80245743497113,46,24,18,3.25,0.166666666666667,3.8,1.28571428571429,4.2,2,0.333333333333333,4,2.37946428571429,-6.75,-0.525,2.8,1.65,"Female",20,"Right handed","Polytechnic","Chinese","Buddhism","Singaporean","Yes"
2,13,"Social",1,1,18,"Direct","TRUTH","What was the last country you visited?",0.925925925925926,"2.433435519458726",4.66630277037621,44,34,12,90,36,33,69,0.170740740740741,0.657568185846362,0.80245743497113,46,24,18,3.25,0.166666666666667,3.8,1.28571428571429,4.2,2,0.333333333333333,4,2.37946428571429,-6.75,-0.525,2.8,1.65,"Female",20,"Right handed","Polytechnic","Chinese","Buddhism","Singaporean","Yes"
2,14,"Social",1,1,16,"Direct","LIE","How many siblings do you have? (Eg. 0, 1, 2, 3)",0.89537037037037,"2.435641353717074",3.39970351476222,44,34,12,90,36,33,69,0.170740740740741,0.657568185846362,0.80245743497113,46,24,18,3.25,0.166666666666667,3.8,1.28571428571429,4.2,2,0.333333333333333,4,2.37946428571429,-6.75,-0.525,2.8,1.65,"Female",20,"Right handed","Polytechnic","Chinese","Buddhism","Singaporean","Yes"
2,15,"Social",1,1,7,"Direct","LIE","What is your favourite sport?",0.0833333333333333,"2.300414989469573",5.03229673672467,44,34,12,90,36,33,69,0.170740740740741,0.657568185846362,0.80245743497113,46,24,18,3.25,0.166666666666667,3.8,1.28571428571429,4.2,2,0.333333333333333,4,2.37946428571429,-6.75,-0.525,2.8,1.65,"Female",20,"Right handed","Polytechnic","Chinese","Buddhism","Singaporean","Yes"
2,16,"Social",1,1,2,"Direct","TRUTH","Which secondary school did you attend?",0.897222222222222,"1.8149595083668828",4.53305671666749,44,34,12,90,36,33,69,0.170740740740741,0.657568185846362,0.80245743497113,46,24,18,3.25,0.166666666666667,3.8,1.28571428571429,4.2,2,0.333333333333333,4,2.37946428571429,-6.75,-0.525,2.8,1.65,"Female",20,"Right handed","Polytechnic","Chinese","Buddhism","Singaporean","Yes"
2,17,"Social",1,1,19,"Direct","TRUTH","Which MRT station is closest to your house?",0.897222222222222,"2.1654273017775267",5.66637045936659,44,34,12,90,36,33,69,0.170740740740741,0.657568185846362,0.80245743497113,46,24,18,3.25,0.166666666666667,3.8,1.28571428571429,4.2,2,0.333333333333333,4,2.37946428571429,-6.75,-0.525,2.8,1.65,"Female",20,"Right handed","Polytechnic","Chinese","Buddhism","Singaporean","Yes"
2,18,"Social",1,1,27,"Direct","TRUTH","How frequently do you drink alcohol?",0.982407407407407,"1.6484334599226713",3.66582060488872,44,34,12,90,36,33,69,0.170740740740741,0.657568185846362,0.80245743497113,46,24,18,3.25,0.166666666666667,3.8,1.28571428571429,4.2,2,0.333333333333333,4,2.37946428571429,-6.75,-0.525,2.8,1.65,"Female",20,"Right handed","Polytechnic","Chinese","Buddhism","Singaporean","Yes"
2,19,"Social",1,1,27,"Direct","LIE","How frequently do you drink alcohol?",0.00555555555555554,"3.734977165237069",3.89993064268492,44,34,12,90,36,33,69,0.170740740740741,0.657568185846362,0.80245743497113,46,24,18,3.25,0.166666666666667,3.8,1.28571428571429,4.2,2,0.333333333333333,4,2.37946428571429,-6.75,-0.525,2.8,1.65,"Female",20,"Right handed","Polytechnic","Chinese","Buddhism","Singaporean","Yes"
2,20,"Social",1,1,20,"Indirect","LIE","Is your house on the 16 floor of the building?",0.0175925925925926,"4.999445012770593",5.23205305542797,44,34,12,90,36,33,69,0.170740740740741,0.657568185846362,0.80245743497113,46,24,18,3.25,0.166666666666667,3.8,1.28571428571429,4.2,2,0.333333333333333,4,2.37946428571429,-6.75,-0.525,2.8,1.65,"Female",20,"Right handed","Polytechnic","Chinese","Buddhism","Singaporean","Yes"
2,21,"Social",1,1,22,"Direct","TRUTH","Which year in NTU are you currently in? (Eg. 1, 2, 3, 4)",0.986111111111111,"4.66636532661505",4.49909020564519,44,34,12,90,36,33,69,0.170740740740741,0.657568185846362,0.80245743497113,46,24,18,3.25,0.166666666666667,3.8,1.28571428571429,4.2,2,0.333333333333333,4,2.37946428571429,-6.75,-0.525,2.8,1.65,"Female",20,"Right handed","Polytechnic","Chinese","Buddhism","Singaporean","Yes"
2,22,"Social",1,1,15,"Indirect","TRUTH","Are you from Nanyang polytechnic?",0.993518518518518,"4.55098216724582",5.06651411461644,44,34,12,90,36,33,69,0.170740740740741,0.657568185846362,0.80245743497113,46,24,18,3.25,0.166666666666667,3.8,1.28571428571429,4.2,2,0.333333333333333,4,2.37946428571429,-6.75,-0.525,2.8,1.65,"Female",20,"Right handed","Polytechnic","Chinese","Buddhism","Singaporean","Yes"
2,23,"Social",1,1,5,"Indirect","TRUTH","Is your favourite country Korea?",1,"3.7660064133815467",5.3327774903737,44,34,12,90,36,33,69,0.170740740740741,0.657568185846362,0.80245743497113,46,24,18,3.25,0.166666666666667,3.8,1.28571428571429,4.2,2,0.333333333333333,4,2.37946428571429,-6.75,-0.525,2.8,1.65,"Female",20,"Right handed","Polytechnic","Chinese","Buddhism","Singaporean","Yes"
2,24,"Social",1,1,2,"Direct","LIE","Which secondary school did you attend?",0.0574074074074074,"1.8314391046296805",4.63269652007148,44,34,12,90,36,33,69,0.170740740740741,0.657568185846362,0.80245743497113,46,24,18,3.25,0.166666666666667,3.8,1.28571428571429,4.2,2,0.333333333333333,4,2.37946428571429,-6.75,-0.525,2.8,1.65,"Female",20,"Right handed","Polytechnic","Chinese","Buddhism","Singaporean","Yes"
2,25,"Social",1,1,28,"Direct","LIE","What religion do you practice?",0.0388888888888889,"3.6703974863048643",3.66651032911614,44,34,12,90,36,33,69,0.170740740740741,0.657568185846362,0.80245743497113,46,24,18,3.25,0.166666666666667,3.8,1.28571428571429,4.2,2,0.333333333333333,4,2.37946428571429,-6.75,-0.525,2.8,1.65,"Female",20,"Right handed","Polytechnic","Chinese","Buddhism","Singaporean","Yes"
2,26,"Social",1,1,1,"Direct","TRUTH","Which primary school are you from?",0.968518518518519,"1.498731548897922",5.932726547122,44,34,12,90,36,33,69,0.170740740740741,0.657568185846362,0.80245743497113,46,24,18,3.25,0.166666666666667,3.8,1.28571428571429,4.2,2,0.333333333333333,4,2.37946428571429,-6.75,-0.525,2.8,1.65,"Female",20,"Right handed","Polytechnic","Chinese","Buddhism","Singaporean","Yes"
2,27,"Social",1,1,13,"Indirect","LIE","Is your dream job a Scientist when you were growing up?",0.0425925925925926,"2.466888426337391",6.81618529255502,44,34,12,90,36,33,69,0.170740740740741,0.657568185846362,0.80245743497113,46,24,18,3.25,0.166666666666667,3.8,1.28571428571429,4.2,2,0.333333333333333,4,2.37946428571429,-6.75,-0.525,2.8,1.65,"Female",20,"Right handed","Polytechnic","Chinese","Buddhism","Singaporean","Yes"
2,28,"Social",1,1,1,"Indirect","LIE","Are you from Edgefield Primary School?",0.000925925925925941,"2.967091494007036",7.19955164729618,44,34,12,90,36,33,69,0.170740740740741,0.657568185846362,0.80245743497113,46,24,18,3.25,0.166666666666667,3.8,1.28571428571429,4.2,2,0.333333333333333,4,2.37946428571429,-6.75,-0.525,2.8,1.65,"Female",20,"Right handed","Polytechnic","Chinese","Buddhism","Singaporean","Yes"
2,29,"Social",1,1,20,"Indirect","TRUTH","Is your house on the 5 floor of the building?",0.962037037037037,"1.0490291249006987",6.69951507588848,44,34,12,90,36,33,69,0.170740740740741,0.657568185846362,0.80245743497113,46,24,18,3.25,0.166666666666667,3.8,1.28571428571429,4.2,2,0.333333333333333,4,2.37946428571429,-6.75,-0.525,2.8,1.65,"Female",20,"Right handed","Polytechnic","Chinese","Buddhism","Singaporean","Yes"
2,30,"Social",1,1,28,"Indirect","TRUTH","Is your religion Christianity?",0.962037037037037,"2.035345317563042",5.83271333016455,44,34,12,90,36,33,69,0.170740740740741,0.657568185846362,0.80245743497113,46,24,18,3.25,0.166666666666667,3.8,1.28571428571429,4.2,2,0.333333333333333,4,2.37946428571429,-6.75,-0.525,2.8,1.65,"Female",20,"Right handed","Polytechnic","Chinese","Buddhism","Singaporean","Yes"
2,31,"Social",1,1,19,"Indirect","LIE","Is the Cityhall station the closest MRT to your house?",0.05,"2.267479536123574",5.99929295247421,44,34,12,90,36,33,69,0.170740740740741,0.657568185846362,0.80245743497113,46,24,18,3.25,0.166666666666667,3.8,1.28571428571429,4.2,2,0.333333333333333,4,2.37946428571429,-6.75,-0.525,2.8,1.65,"Female",20,"Right handed","Polytechnic","Chinese","Buddhism","Singaporean","Yes"
2,32,"Social",1,1,18,"Direct","LIE","What was the last country you visited?",0.05,"2.0029818541370332",4.19960810849443,44,34,12,90,36,33,69,0.170740740740741,0.657568185846362,0.80245743497113,46,24,18,3.25,0.166666666666667,3.8,1.28571428571429,4.2,2,0.333333333333333,4,2.37946428571429,-6.75,-0.525,2.8,1.65,"Female",20,"Right handed","Polytechnic","Chinese","Buddhism","Singaporean","Yes"
2,33,"Social",1,1,21,"Direct","LIE","Which school in NTU are you from? (Eg. NBS, SSS, SOH)",0.05,"1.2660044888034463",4.89978499850258,44,34,12,90,36,33,69,0.170740740740741,0.657568185846362,0.80245743497113,46,24,18,3.25,0.166666666666667,3.8,1.28571428571429,4.2,2,0.333333333333333,4,2.37946428571429,-6.75,-0.525,2.8,1.65,"Female",20,"Right handed","Polytechnic","Chinese","Buddhism","Singaporean","Yes"
2,34,"Social",1,0,23,"Indirect","TRUTH","Are you studying Business course in NTU?",0.95462962962963,"2.5176001575309783",7.23305395757779,44,34,12,90,36,33,69,0.170740740740741,0.657568185846362,0.80245743497113,46,24,18,3.25,0.166666666666667,3.8,1.28571428571429,4.2,2,0.333333333333333,4,2.37946428571429,-6.75,-0.525,2.8,1.65,"Female",20,"Right handed","Polytechnic","Chinese","Buddhism","Singaporean","Yes"
2,35,"Social",1,1,3,"Indirect","TRUTH","Is Yilin your closest friend back in secondary school?",0.958333333333333,"2.033546581165865",5.96546214097179,44,34,12,90,36,33,69,0.170740740740741,0.657568185846362,0.80245743497113,46,24,18,3.25,0.166666666666667,3.8,1.28571428571429,4.2,2,0.333333333333333,4,2.37946428571429,-6.75,-0.525,2.8,1.65,"Female",20,"Right handed","Polytechnic","Chinese","Buddhism","Singaporean","Yes"
2,36,"Social",1,1,13,"Direct","TRUTH","What is your dream job growing up?",0.947222222222222,"1.9498596170451492",6.16569773782976,44,34,12,90,36,33,69,0.170740740740741,0.657568185846362,0.80245743497113,46,24,18,3.25,0.166666666666667,3.8,1.28571428571429,4.2,2,0.333333333333333,4,2.37946428571429,-6.75,-0.525,2.8,1.65,"Female",20,"Right handed","Polytechnic","Chinese","Buddhism","Singaporean","Yes"
2,37,"Social",1,1,29,"Indirect","LIE","Do you use a Huawei phone?",0.0555555555555556,"2.7834564356599003",3.83313743025064,44,34,12,90,36,33,69,0.170740740740741,0.657568185846362,0.80245743497113,46,24,18,3.25,0.166666666666667,3.8,1.28571428571429,4.2,2,0.333333333333333,4,2.37946428571429,-6.75,-0.525,2.8,1.65,"Female",20,"Right handed","Polytechnic","Chinese","Buddhism","Singaporean","Yes"
2,38,"Social",1,1,3,"Direct","LIE","Who is your closest friend back in secondary school?",0.0620370370370371,"6.665732063585892",6.28331015002914,44,34,12,90,36,33,69,0.170740740740741,0.657568185846362,0.80245743497113,46,24,18,3.25,0.166666666666667,3.8,1.28571428571429,4.2,2,0.333333333333333,4,2.37946428571429,-6.75,-0.525,2.8,1.65,"Female",20,"Right handed","Polytechnic","Chinese","Buddhism","Singaporean","Yes"
2,39,"Social",1,1,6,"Indirect","TRUTH","Were you in the Taekwondo CCA during secondary school?",0.961111111111111,"2.5349472023081034",5.19955806317739,44,34,12,90,36,33,69,0.170740740740741,0.657568185846362,0.80245743497113,46,24,18,3.25,0.166666666666667,3.8,1.28571428571429,4.2,2,0.333333333333333,4,2.37946428571429,-6.75,-0.525,2.8,1.65,"Female",20,"Right handed","Polytechnic","Chinese","Buddhism","Singaporean","Yes"
2,40,"Social",1,1,16,"Indirect","TRUTH","Do you have 4 siblings?",0.961111111111111,"0.9814262085128576",5.91575067024678,44,34,12,90,36,33,69,0.170740740740741,0.657568185846362,0.80245743497113,46,24,18,3.25,0.166666666666667,3.8,1.28571428571429,4.2,2,0.333333333333333,4,2.37946428571429,-6.75,-0.525,2.8,1.65,"Female",20,"Right handed","Polytechnic","Chinese","Buddhism","Singaporean","Yes"
2,41,"Polygraph",0,0,10,"Indirect","TRUTH","Do you hate eating Pancakes the most?",0.977777777777778,"3.268191074952483",8.88267470546998,44,34,12,90,36,33,69,0.170740740740741,0.657568185846362,0.80245743497113,46,24,18,3.25,0.166666666666667,3.8,1.28571428571429,4.2,2,0.333333333333333,4,2.37946428571429,-6.75,-0.525,2.8,1.65,"Female",20,"Right handed","Polytechnic","Chinese","Buddhism","Singaporean","Yes"
2,42,"Polygraph",0,0,22,"Indirect","LIE","Are you in your 1st year in NTU?",0.0231481481481481,"2.567155076889321",8.86568407155573,44,34,12,90,36,33,69,0.170740740740741,0.657568185846362,0.80245743497113,46,24,18,3.25,0.166666666666667,3.8,1.28571428571429,4.2,2,0.333333333333333,4,2.37946428571429,-6.75,-0.525,2.8,1.65,"Female",20,"Right handed","Polytechnic","Chinese","Buddhism","Singaporean","Yes"
2,43,"Polygraph",0,0,3,"Indirect","LIE","Is Joel your closest friend back in secondary school?",0.0611111111111111,"4.369148732628673",8.88232823926955,44,34,12,90,36,33,69,0.170740740740741,0.657568185846362,0.80245743497113,46,24,18,3.25,0.166666666666667,3.8,1.28571428571429,4.2,2,0.333333333333333,4,2.37946428571429,-6.75,-0.525,2.8,1.65,"Female",20,"Right handed","Polytechnic","Chinese","Buddhism","Singaporean","Yes"
2,44,"Polygraph",0,0,7,"Direct","TRUTH","What is your favourite sport?",0.951851851851852,"2.568278204649687",8.81565179908648,44,34,12,90,36,33,69,0.170740740740741,0.657568185846362,0.80245743497113,46,24,18,3.25,0.166666666666667,3.8,1.28571428571429,4.2,2,0.333333333333333,4,2.37946428571429,-6.75,-0.525,2.8,1.65,"Female",20,"Right handed","Polytechnic","Chinese","Buddhism","Singaporean","Yes"
2,45,"Polygraph",0,0,20,"Direct","TRUTH","Which floor of the building is your house on?",0.951851851851852,"4.067085783928633",8.86596124456264,44,34,12,90,36,33,69,0.170740740740741,0.657568185846362,0.80245743497113,46,24,18,3.25,0.166666666666667,3.8,1.28571428571429,4.2,2,0.333333333333333,4,2.37946428571429,-6.75,-0.525,2.8,1.65,"Female",20,"Right handed","Polytechnic","Chinese","Buddhism","Singaporean","Yes"
2,46,"Polygraph",0,0,22,"Indirect","TRUTH","Are you in your 3rd year in NTU?",0.951851851851852,"1.549606247805059",8.8494373774156,44,34,12,90,36,33,69,0.170740740740741,0.657568185846362,0.80245743497113,46,24,18,3.25,0.166666666666667,3.8,1.28571428571429,4.2,2,0.333333333333333,4,2.37946428571429,-6.75,-0.525,2.8,1.65,"Female",20,"Right handed","Polytechnic","Chinese","Buddhism","Singaporean","Yes"
2,47,"Polygraph",0,0,21,"Indirect","LIE","Are you from School of Physical and Mathematical Sciences in NTU?",0.037962962962963,"2.050051199970767",8.84955029981211,44,34,12,90,36,33,69,0.170740740740741,0.657568185846362,0.80245743497113,46,24,18,3.25,0.166666666666667,3.8,1.28571428571429,4.2,2,0.333333333333333,4,2.37946428571429,-6.75,-0.525,2.8,1.65,"Female",20,"Right handed","Polytechnic","Chinese","Buddhism","Singaporean","Yes"
2,48,"Polygraph",0,0,19,"Indirect","TRUTH","Is the Punggol station the closest MRT to your house?",0.934259259259259,"2.4520522984676063",8.86564012174495,44,34,12,90,36,33,69,0.170740740740741,0.657568185846362,0.80245743497113,46,24,18,3.25,0.166666666666667,3.8,1.28571428571429,4.2,2,0.333333333333333,4,2.37946428571429,-6.75,-0.525,2.8,1.65,"Female",20,"Right handed","Polytechnic","Chinese","Buddhism","Singaporean","Yes"
2,49,"Polygraph",0,0,15,"Direct","TRUTH","Which polytechnic or junior college are you from?",0.922222222222222,"1.76626465911977",8.88254927215166,44,34,12,90,36,33,69,0.170740740740741,0.657568185846362,0.80245743497113,46,24,18,3.25,0.166666666666667,3.8,1.28571428571429,4.2,2,0.333333333333333,4,2.37946428571429,-6.75,-0.525,2.8,1.65,"Female",20,"Right handed","Polytechnic","Chinese","Buddhism","Singaporean","Yes"
2,50,"Polygraph",0,0,18,"Indirect","TRUTH","Was the last country you visited Taiwan?",0.92962962962963,"6.902133910451084",8.84894815459847,44,34,12,90,36,33,69,0.170740740740741,0.657568185846362,0.80245743497113,46,24,18,3.25,0.166666666666667,3.8,1.28571428571429,4.2,2,0.333333333333333,4,2.37946428571429,-6.75,-0.525,2.8,1.65,"Female",20,"Right handed","Polytechnic","Chinese","Buddhism","Singaporean","Yes"
2,51,"Polygraph",0,0,20,"Direct","LIE","Which floor of the building is your house on?",0.0240740740740741,"18.383789812913164",8.86604978586547,44,34,12,90,36,33,69,0.170740740740741,0.657568185846362,0.80245743497113,46,24,18,3.25,0.166666666666667,3.8,1.28571428571429,4.2,2,0.333333333333333,4,2.37946428571429,-6.75,-0.525,2.8,1.65,"Female",20,"Right handed","Polytechnic","Chinese","Buddhism","Singaporean","Yes"
2,52,"Polygraph",0,0,3,"Direct","TRUTH","Who is your closest friend back in secondary school?",0.528703703703704,"7.7014658723492175",8.84899435006082,44,34,12,90,36,33,69,0.170740740740741,0.657568185846362,0.80245743497113,46,24,18,3.25,0.166666666666667,3.8,1.28571428571429,4.2,2,0.333333333333333,4,2.37946428571429,-6.75,-0.525,2.8,1.65,"Female",20,"Right handed","Polytechnic","Chinese","Buddhism","Singaporean","Yes"
2,53,"Polygraph",1,0,13,"Direct","LIE","What is your dream job growing up?",0.0722222222222222,"2.5659055535215884",7.93256486300379,44,34,12,90,36,33,69,0.170740740740741,0.657568185846362,0.80245743497113,46,24,18,3.25,0.166666666666667,3.8,1.28571428571429,4.2,2,0.333333333333333,4,2.37946428571429,-6.75,-0.525,2.8,1.65,"Female",20,"Right handed","Polytechnic","Chinese","Buddhism","Singaporean","Yes"
2,54,"Polygraph",1,1,15,"Direct","LIE","Which polytechnic or junior college are you from?",0.0722222222222222,"2.0359959041234106",8.79887834796682,44,34,12,90,36,33,69,0.170740740740741,0.657568185846362,0.80245743497113,46,24,18,3.25,0.166666666666667,3.8,1.28571428571429,4.2,2,0.333333333333333,4,2.37946428571429,-6.75,-0.525,2.8,1.65,"Female",20,"Right handed","Polytechnic","Chinese","Buddhism","Singaporean","Yes"
2,55,"Polygraph",1,1,6,"Direct","LIE","What CCA (Co-curricular Activity) did you join in secondary school?",0.0722222222222222,"1.633375978562981",6.23295547137968,44,34,12,90,36,33,69,0.170740740740741,0.657568185846362,0.80245743497113,46,24,18,3.25,0.166666666666667,3.8,1.28571428571429,4.2,2,0.333333333333333,4,2.37946428571429,-6.75,-0.525,2.8,1.65,"Female",20,"Right handed","Polytechnic","Chinese","Buddhism","Singaporean","Yes"
2,56,"Polygraph",1,1,10,"Indirect","LIE","Do you hate eating Ramen the most?",0.0722222222222222,"1.9159008054994047",5.44978583278134,44,34,12,90,36,33,69,0.170740740740741,0.657568185846362,0.80245743497113,46,24,18,3.25,0.166666666666667,3.8,1.28571428571429,4.2,2,0.333333333333333,4,2.37946428571429,-6.75,-0.525,2.8,1.65,"Female",20,"Right handed","Polytechnic","Chinese","Buddhism","Singaporean","Yes"
2,57,"Polygraph",1,1,29,"Direct","LIE","What brand of handphone do you use?",0.0722222222222222,"1.6332306552212685",8.84928243025206,44,34,12,90,36,33,69,0.170740740740741,0.657568185846362,0.80245743497113,46,24,18,3.25,0.166666666666667,3.8,1.28571428571429,4.2,2,0.333333333333333,4,2.37946428571429,-6.75,-0.525,2.8,1.65,"Female",20,"Right handed","Polytechnic","Chinese","Buddhism","Singaporean","Yes"
2,58,"Polygraph",1,1,2,"Indirect","TRUTH","Are you from Edgefield Secondary School?",0.938888888888889,"3.153189669828862",8.84888239018619,44,34,12,90,36,33,69,0.170740740740741,0.657568185846362,0.80245743497113,46,24,18,3.25,0.166666666666667,3.8,1.28571428571429,4.2,2,0.333333333333333,4,2.37946428571429,-6.75,-0.525,2.8,1.65,"Female",20,"Right handed","Polytechnic","Chinese","Buddhism","Singaporean","Yes"
2,59,"Polygraph",1,1,27,"Indirect","TRUTH","Do you not drink alcohol at all?",0.963888888888889,"5.602137888316065",8.86552046262659,44,34,12,90,36,33,69,0.170740740740741,0.657568185846362,0.80245743497113,46,24,18,3.25,0.166666666666667,3.8,1.28571428571429,4.2,2,0.333333333333333,4,2.37946428571429,-6.75,-0.525,2.8,1.65,"Female",20,"Right handed","Polytechnic","Chinese","Buddhism","Singaporean","Yes"
2,60,"Polygraph",1,1,5,"Direct","TRUTH","What is your favourite country you visited? ",0.984259259259259,"1.4818236820865422",7.73278576694429,44,34,12,90,36,33,69,0.170740740740741,0.657568185846362,0.80245743497113,46,24,18,3.25,0.166666666666667,3.8,1.28571428571429,4.2,2,0.333333333333333,4,2.37946428571429,-6.75,-0.525,2.8,1.65,"Female",20,"Right handed","Polytechnic","Chinese","Buddhism","Singaporean","Yes"
2,61,"Polygraph",1,1,13,"Indirect","TRUTH","Is your dream job a Teacher when you were growing up?",0.986111111111111,"1.8649426982738078",7.91630341182463,44,34,12,90,36,33,69,0.170740740740741,0.657568185846362,0.80245743497113,46,24,18,3.25,0.166666666666667,3.8,1.28571428571429,4.2,2,0.333333333333333,4,2.37946428571429,-6.75,-0.525,2.8,1.65,"Female",20,"Right handed","Polytechnic","Chinese","Buddhism","Singaporean","Yes"
2,62,"Polygraph",1,0,23,"Direct","TRUTH","What course are you studying?",0.987037037037037,"1.5149869050364941",5.76641832315363,44,34,12,90,36,33,69,0.170740740740741,0.657568185846362,0.80245743497113,46,24,18,3.25,0.166666666666667,3.8,1.28571428571429,4.2,2,0.333333333333333,4,2.37946428571429,-6.75,-0.525,2.8,1.65,"Female",20,"Right handed","Polytechnic","Chinese","Buddhism","Singaporean","Yes"
2,63,"Polygraph",1,1,21,"Direct","TRUTH","Which school in NTU are you from? (Eg. NBS, SSS, SOH)",0.986111111111111,"3.883496600203216",7.19959720107727,44,34,12,90,36,33,69,0.170740740740741,0.657568185846362,0.80245743497113,46,24,18,3.25,0.166666666666667,3.8,1.28571428571429,4.2,2,0.333333333333333,4,2.37946428571429,-6.75,-0.525,2.8,1.65,"Female",20,"Right handed","Polytechnic","Chinese","Buddhism","Singaporean","Yes"
2,64,"Polygraph",1,1,18,"Indirect","LIE","Was the last country you visited Japan?",0.107407407407407,"2.0333781600929797",8.39916071807966,44,34,12,90,36,33,69,0.170740740740741,0.657568185846362,0.80245743497113,46,24,18,3.25,0.166666666666667,3.8,1.28571428571429,4.2,2,0.333333333333333,4,2.37946428571429,-6.75,-0.525,2.8,1.65,"Female",20,"Right handed","Polytechnic","Chinese","Buddhism","Singaporean","Yes"
2,65,"Polygraph",1,1,5,"Indirect","LIE","Is your favourite country Italy?",0.106481481481481,"1.8318250295706093",7.0663845106028,44,34,12,90,36,33,69,0.170740740740741,0.657568185846362,0.80245743497113,46,24,18,3.25,0.166666666666667,3.8,1.28571428571429,4.2,2,0.333333333333333,4,2.37946428571429,-6.75,-0.525,2.8,1.65,"Female",20,"Right handed","Polytechnic","Chinese","Buddhism","Singaporean","Yes"
2,66,"Polygraph",1,1,2,"Indirect","LIE","Are you from Serangoon Secondary School?",0.106481481481481,"1.7336464787367731",8.8657055653166,44,34,12,90,36,33,69,0.170740740740741,0.657568185846362,0.80245743497113,46,24,18,3.25,0.166666666666667,3.8,1.28571428571429,4.2,2,0.333333333333333,4,2.37946428571429,-6.75,-0.525,2.8,1.65,"Female",20,"Right handed","Polytechnic","Chinese","Buddhism","Singaporean","Yes"
2,67,"Polygraph",1,1,1,"Direct","LIE","Which primary school are you from?",0.106481481481481,"1.4150628708302975",5.3662733847741,44,34,12,90,36,33,69,0.170740740740741,0.657568185846362,0.80245743497113,46,24,18,3.25,0.166666666666667,3.8,1.28571428571429,4.2,2,0.333333333333333,4,2.37946428571429,-6.75,-0.525,2.8,1.65,"Female",20,"Right handed","Polytechnic","Chinese","Buddhism","Singaporean","Yes"
2,68,"Polygraph",1,1,30,"Direct","LIE","What brand of laptop do you mainly use?",0.106481481481481,"3.767821190180257",8.83231649803929,44,34,12,90,36,33,69,0.170740740740741,0.657568185846362,0.80245743497113,46,24,18,3.25,0.166666666666667,3.8,1.28571428571429,4.2,2,0.333333333333333,4,2.37946428571429,-6.75,-0.525,2.8,1.65,"Female",20,"Right handed","Polytechnic","Chinese","Buddhism","Singaporean","Yes"
2,69,"Polygraph",1,1,7,"Indirect","LIE","Is your favourite sport Tennis?",0.0203703703703704,"2.567433853633702",6.26636827806942,44,34,12,90,36,33,69,0.170740740740741,0.657568185846362,0.80245743497113,46,24,18,3.25,0.166666666666667,3.8,1.28571428571429,4.2,2,0.333333333333333,4,2.37946428571429,-6.75,-0.525,2.8,1.65,"Female",20,"Right handed","Polytechnic","Chinese","Buddhism","Singaporean","Yes"
2,70,"Polygraph",1,1,27,"Indirect","LIE","Do you drink alcohol socially?",0.0203703703703704,"1.6491773996967822",7.61581175075844,44,34,12,90,36,33,69,0.170740740740741,0.657568185846362,0.80245743497113,46,24,18,3.25,0.166666666666667,3.8,1.28571428571429,4.2,2,0.333333333333333,4,2.37946428571429,-6.75,-0.525,2.8,1.65,"Female",20,"Right handed","Polytechnic","Chinese","Buddhism","Singaporean","Yes"
2,71,"Polygraph",1,1,28,"Indirect","LIE","Is your religion Buddhism?",0.0203703703703704,"1.5486714306753129",7.36619093874469,44,34,12,90,36,33,69,0.170740740740741,0.657568185846362,0.80245743497113,46,24,18,3.25,0.166666666666667,3.8,1.28571428571429,4.2,2,0.333333333333333,4,2.37946428571429,-6.75,-0.525,2.8,1.65,"Female",20,"Right handed","Polytechnic","Chinese","Buddhism","Singaporean","Yes"
2,72,"Polygraph",1,1,23,"Indirect","LIE","Are you studying Chemistry and Biological Chemistry in NTU?",0.0203703703703704,"1.3335438864305615",8.84901712695137,44,34,12,90,36,33,69,0.170740740740741,0.657568185846362,0.80245743497113,46,24,18,3.25,0.166666666666667,3.8,1.28571428571429,4.2,2,0.333333333333333,4,2.37946428571429,-6.75,-0.525,2.8,1.65,"Female",20,"Right handed","Polytechnic","Chinese","Buddhism","Singaporean","Yes"
2,73,"Polygraph",1,1,6,"Direct","TRUTH","What CCA (Co-curricular Activity) did you join in secondary school?",0.95462962962963,"1.9817178174853325",6.46590420580469,44,34,12,90,36,33,69,0.170740740740741,0.657568185846362,0.80245743497113,46,24,18,3.25,0.166666666666667,3.8,1.28571428571429,4.2,2,0.333333333333333,4,2.37946428571429,-6.75,-0.525,2.8,1.65,"Female",20,"Right handed","Polytechnic","Chinese","Buddhism","Singaporean","Yes"
2,74,"Polygraph",1,1,16,"Direct","TRUTH","How many siblings do you have? (Eg. 0, 1, 2, 3)",0.95462962962963,"1.4659000355750322",4.46609700797126,44,34,12,90,36,33,69,0.170740740740741,0.657568185846362,0.80245743497113,46,24,18,3.25,0.166666666666667,3.8,1.28571428571429,4.2,2,0.333333333333333,4,2.37946428571429,-6.75,-0.525,2.8,1.65,"Female",20,"Right handed","Polytechnic","Chinese","Buddhism","Singaporean","Yes"
2,75,"Polygraph",1,1,29,"Indirect","TRUTH","Do you use a Samsung phone?",0.948148148148148,"2.200459195766598",8.69919491535984,44,34,12,90,36,33,69,0.170740740740741,0.657568185846362,0.80245743497113,46,24,18,3.25,0.166666666666667,3.8,1.28571428571429,4.2,2,0.333333333333333,4,2.37946428571429,-6.75,-0.525,2.8,1.65,"Female",20,"Right handed","Polytechnic","Chinese","Buddhism","Singaporean","Yes"
2,76,"Polygraph",1,1,30,"Indirect","TRUTH","Do you use an Apple laptop?",0.869444444444444,"5.850241948850453",5.38330219406635,44,34,12,90,36,33,69,0.170740740740741,0.657568185846362,0.80245743497113,46,24,18,3.25,0.166666666666667,3.8,1.28571428571429,4.2,2,0.333333333333333,4,2.37946428571429,-6.75,-0.525,2.8,1.65,"Female",20,"Right handed","Polytechnic","Chinese","Buddhism","Singaporean","Yes"
2,77,"Polygraph",1,1,16,"Indirect","LIE","Do you have 2 siblings?",0.0453703703703704,"1.9840285538230091",8.86577934981324,44,34,12,90,36,33,69,0.170740740740741,0.657568185846362,0.80245743497113,46,24,18,3.25,0.166666666666667,3.8,1.28571428571429,4.2,2,0.333333333333333,4,2.37946428571429,-6.75,-0.525,2.8,1.65,"Female",20,"Right handed","Polytechnic","Chinese","Buddhism","Singaporean","Yes"
2,78,"Polygraph",1,1,19,"Direct","LIE","Which MRT station is closest to your house?",0.0425925925925926,"1.7824542503803968",8.8491361446213,44,34,12,90,36,33,69,0.170740740740741,0.657568185846362,0.80245743497113,46,24,18,3.25,0.166666666666667,3.8,1.28571428571429,4.2,2,0.333333333333333,4,2.37946428571429,-6.75,-0.525,2.8,1.65,"Female",20,"Right handed","Polytechnic","Chinese","Buddhism","Singaporean","Yes"
2,79,"Polygraph",1,1,1,"Indirect","TRUTH","Are you from Woodlands Primary School?",0.955555555555555,"2.100134480278939",8.86588938487694,44,34,12,90,36,33,69,0.170740740740741,0.657568185846362,0.80245743497113,46,24,18,3.25,0.166666666666667,3.8,1.28571428571429,4.2,2,0.333333333333333,4,2.37946428571429,-6.75,-0.525,2.8,1.65,"Female",20,"Right handed","Polytechnic","Chinese","Buddhism","Singaporean","Yes"
2,80,"Polygraph",1,1,28,"Direct","TRUTH","What religion do you practice?",0.950925925925926,"1.566685423022136",8.84875150281005,44,34,12,90,36,33,69,0.170740740740741,0.657568185846362,0.80245743497113,46,24,18,3.25,0.166666666666667,3.8,1.28571428571429,4.2,2,0.333333333333333,4,2.37946428571429,-6.75,-0.525,2.8,1.65,"Female",20,"Right handed","Polytechnic","Chinese","Buddhism","Singaporean","Yes"
3,1,"Social",1,1,20,"Direct","LIE","Which floor of the building is your house on?",NA,"None",4.49935069680214,33,28,10,71,33,48,81,NA,0.744511285450619,NA,43,18,21,4,1.83333333333333,2,3.14285714285714,3.8,3.75,3.33333333333333,4,3.23244047619048,3.2,-0.375,6.15,5.025,"Female",21,"Right handed","Junior College","Chinese","Buddhism","Singaporean","Yes"
3,2,"Social",1,1,6,"Indirect","TRUTH","Were you in the Netball CCA during secondary school?",NA,"None",4.19925586786121,33,28,10,71,33,48,81,NA,0.744511285450619,NA,43,18,21,4,1.83333333333333,2,3.14285714285714,3.8,3.75,3.33333333333333,4,3.23244047619048,3.2,-0.375,6.15,5.025,"Female",21,"Right handed","Junior College","Chinese","Buddhism","Singaporean","Yes"
3,3,"Social",1,1,29,"Direct","TRUTH","What brand of handphone do you use?",NA,"None",2.46688072709367,33,28,10,71,33,48,81,NA,0.744511285450619,NA,43,18,21,4,1.83333333333333,2,3.14285714285714,3.8,3.75,3.33333333333333,4,3.23244047619048,3.2,-0.375,6.15,5.025,"Female",21,"Right handed","Junior College","Chinese","Buddhism","Singaporean","Yes"
3,4,"Social",0,0,24,"Direct","TRUTH","How old is your mum? (Eg. 45, 52)",NA,"None",2.76615237817168,33,28,10,71,33,48,81,NA,0.744511285450619,NA,43,18,21,4,1.83333333333333,2,3.14285714285714,3.8,3.75,3.33333333333333,4,3.23244047619048,3.2,-0.375,6.15,5.025,"Female",21,"Right handed","Junior College","Chinese","Buddhism","Singaporean","Yes"
3,5,"Social",1,1,19,"Direct","TRUTH","Which MRT station is closest to your house?",NA,"None",3.93279872788116,33,28,10,71,33,48,81,NA,0.744511285450619,NA,43,18,21,4,1.83333333333333,2,3.14285714285714,3.8,3.75,3.33333333333333,4,3.23244047619048,3.2,-0.375,6.15,5.025,"Female",21,"Right handed","Junior College","Chinese","Buddhism","Singaporean","Yes"
3,6,"Social",1,1,30,"Direct","LIE","What brand of laptop do you mainly use?",NA,"None",3.03315680660307,33,28,10,71,33,48,81,NA,0.744511285450619,NA,43,18,21,4,1.83333333333333,2,3.14285714285714,3.8,3.75,3.33333333333333,4,3.23244047619048,3.2,-0.375,6.15,5.025,"Female",21,"Right handed","Junior College","Chinese","Buddhism","Singaporean","Yes"
3,7,"Social",1,1,1,"Direct","LIE","Which primary school are you from?",NA,"None",2.56662222463638,33,28,10,71,33,48,81,NA,0.744511285450619,NA,43,18,21,4,1.83333333333333,2,3.14285714285714,3.8,3.75,3.33333333333333,4,3.23244047619048,3.2,-0.375,6.15,5.025,"Female",21,"Right handed","Junior College","Chinese","Buddhism","Singaporean","Yes"
3,8,"Social",1,1,26,"Indirect","TRUTH","Do you smoke regularly?",NA,"None",2.03302976908162,33,28,10,71,33,48,81,NA,0.744511285450619,NA,43,18,21,4,1.83333333333333,2,3.14285714285714,3.8,3.75,3.33333333333333,4,3.23244047619048,3.2,-0.375,6.15,5.025,"Female",21,"Right handed","Junior College","Chinese","Buddhism","Singaporean","Yes"
3,9,"Social",0,0,14,"Indirect","TRUTH","Is your favourite flavour Strawberry?",NA,"None",3.56628217501566,33,28,10,71,33,48,81,NA,0.744511285450619,NA,43,18,21,4,1.83333333333333,2,3.14285714285714,3.8,3.75,3.33333333333333,4,3.23244047619048,3.2,-0.375,6.15,5.025,"Female",21,"Right handed","Junior College","Chinese","Buddhism","Singaporean","Yes"
3,10,"Social",0,0,14,"Indirect","LIE","Is your favourite flavour Chocolate?",NA,"None",3.33299723966047,33,28,10,71,33,48,81,NA,0.744511285450619,NA,43,18,21,4,1.83333333333333,2,3.14285714285714,3.8,3.75,3.33333333333333,4,3.23244047619048,3.2,-0.375,6.15,5.025,"Female",21,"Right handed","Junior College","Chinese","Buddhism","Singaporean","Yes"
3,11,"Social",1,1,2,"Direct","TRUTH","Which secondary school did you attend?",NA,"None",3.06616829009727,33,28,10,71,33,48,81,NA,0.744511285450619,NA,43,18,21,4,1.83333333333333,2,3.14285714285714,3.8,3.75,3.33333333333333,4,3.23244047619048,3.2,-0.375,6.15,5.025,"Female",21,"Right handed","Junior College","Chinese","Buddhism","Singaporean","Yes"
3,12,"Social",1,1,25,"Direct","TRUTH","How old is your dad? (Eg. 45, 52)",NA,"None",2.64967881329358,33,28,10,71,33,48,81,NA,0.744511285450619,NA,43,18,21,4,1.83333333333333,2,3.14285714285714,3.8,3.75,3.33333333333333,4,3.23244047619048,3.2,-0.375,6.15,5.025,"Female",21,"Right handed","Junior College","Chinese","Buddhism","Singaporean","Yes"
3,13,"Social",1,0,4,"Indirect","LIE","Is Mrs Leong your favourite teacher in secondary school?",NA,"None",2.79954208713025,33,28,10,71,33,48,81,NA,0.744511285450619,NA,43,18,21,4,1.83333333333333,2,3.14285714285714,3.8,3.75,3.33333333333333,4,3.23244047619048,3.2,-0.375,6.15,5.025,"Female",21,"Right handed","Junior College","Chinese","Buddhism","Singaporean","Yes"
3,14,"Social",1,1,23,"Indirect","LIE","Are you studying Business course in NTU?",NA,"None",3.06633157841861,33,28,10,71,33,48,81,NA,0.744511285450619,NA,43,18,21,4,1.83333333333333,2,3.14285714285714,3.8,3.75,3.33333333333333,4,3.23244047619048,3.2,-0.375,6.15,5.025,"Female",21,"Right handed","Junior College","Chinese","Buddhism","Singaporean","Yes"
3,15,"Social",1,1,26,"Indirect","LIE","Do you not smoke at all? ",NA,"None",2.8665621066466,33,28,10,71,33,48,81,NA,0.744511285450619,NA,43,18,21,4,1.83333333333333,2,3.14285714285714,3.8,3.75,3.33333333333333,4,3.23244047619048,3.2,-0.375,6.15,5.025,"Female",21,"Right handed","Junior College","Chinese","Buddhism","Singaporean","Yes"
3,16,"Social",1,1,1,"Indirect","TRUTH","Are you from Canberra Primary School?",NA,"None",3.03319434076548,33,28,10,71,33,48,81,NA,0.744511285450619,NA,43,18,21,4,1.83333333333333,2,3.14285714285714,3.8,3.75,3.33333333333333,4,3.23244047619048,3.2,-0.375,6.15,5.025,"Female",21,"Right handed","Junior College","Chinese","Buddhism","Singaporean","Yes"
3,17,"Social",1,0,15,"Indirect","TRUTH","Are you from Temasek Polytechnic?",NA,"None",3.03293834021315,33,28,10,71,33,48,81,NA,0.744511285450619,NA,43,18,21,4,1.83333333333333,2,3.14285714285714,3.8,3.75,3.33333333333333,4,3.23244047619048,3.2,-0.375,6.15,5.025,"Female",21,"Right handed","Junior College","Chinese","Buddhism","Singaporean","Yes"
3,18,"Social",1,0,28,"Indirect","TRUTH","Is your religion Buddhism?",NA,"None",2.36616367101669,33,28,10,71,33,48,81,NA,0.744511285450619,NA,43,18,21,4,1.83333333333333,2,3.14285714285714,3.8,3.75,3.33333333333333,4,3.23244047619048,3.2,-0.375,6.15,5.025,"Female",21,"Right handed","Junior College","Chinese","Buddhism","Singaporean","Yes"
3,19,"Social",1,1,15,"Direct","LIE","Which polytechnic or junior college are you from?",NA,"None",2.76654888968915,33,28,10,71,33,48,81,NA,0.744511285450619,NA,43,18,21,4,1.83333333333333,2,3.14285714285714,3.8,3.75,3.33333333333333,4,3.23244047619048,3.2,-0.375,6.15,5.025,"Female",21,"Right handed","Junior College","Chinese","Buddhism","Singaporean","Yes"
3,20,"Social",1,1,22,"Indirect","TRUTH","Are you in your 3rd year in NTU?",NA,"None",3.166481457185,33,28,10,71,33,48,81,NA,0.744511285450619,NA,43,18,21,4,1.83333333333333,2,3.14285714285714,3.8,3.75,3.33333333333333,4,3.23244047619048,3.2,-0.375,6.15,5.025,"Female",21,"Right handed","Junior College","Chinese","Buddhism","Singaporean","Yes"
3,21,"Social",1,1,25,"Indirect","LIE","Is your dad 49 years old this year?",NA,"None",2.93349198065698,33,28,10,71,33,48,81,NA,0.744511285450619,NA,43,18,21,4,1.83333333333333,2,3.14285714285714,3.8,3.75,3.33333333333333,4,3.23244047619048,3.2,-0.375,6.15,5.025,"Female",21,"Right handed","Junior College","Chinese","Buddhism","Singaporean","Yes"
3,22,"Social",1,1,17,"Indirect","TRUTH","Did you celebrate your 21st birthday at home?",NA,"None",4.06615642085671,33,28,10,71,33,48,81,NA,0.744511285450619,NA,43,18,21,4,1.83333333333333,2,3.14285714285714,3.8,3.75,3.33333333333333,4,3.23244047619048,3.2,-0.375,6.15,5.025,"Female",21,"Right handed","Junior College","Chinese","Buddhism","Singaporean","Yes"
3,23,"Social",1,1,28,"Direct","LIE","What religion do you practice?",NA,"None",2.33322982117534,33,28,10,71,33,48,81,NA,0.744511285450619,NA,43,18,21,4,1.83333333333333,2,3.14285714285714,3.8,3.75,3.33333333333333,4,3.23244047619048,3.2,-0.375,6.15,5.025,"Female",21,"Right handed","Junior College","Chinese","Buddhism","Singaporean","Yes"
3,24,"Social",1,1,4,"Direct","TRUTH","Who is your favourite teacher in secondary school?",NA,"None",4.16607981314883,33,28,10,71,33,48,81,NA,0.744511285450619,NA,43,18,21,4,1.83333333333333,2,3.14285714285714,3.8,3.75,3.33333333333333,4,3.23244047619048,3.2,-0.375,6.15,5.025,"Female",21,"Right handed","Junior College","Chinese","Buddhism","Singaporean","Yes"
3,25,"Social",1,1,22,"Indirect","LIE","Are you in your 1st year in NTU?",NA,"None",2.66669767722487,33,28,10,71,33,48,81,NA,0.744511285450619,NA,43,18,21,4,1.83333333333333,2,3.14285714285714,3.8,3.75,3.33333333333333,4,3.23244047619048,3.2,-0.375,6.15,5.025,"Female",21,"Right handed","Junior College","Chinese","Buddhism","Singaporean","Yes"
3,26,"Social",1,1,24,"Indirect","LIE","Is your mum 42 years old this year?",NA,"None",3.11625542026013,33,28,10,71,33,48,81,NA,0.744511285450619,NA,43,18,21,4,1.83333333333333,2,3.14285714285714,3.8,3.75,3.33333333333333,4,3.23244047619048,3.2,-0.375,6.15,5.025,"Female",21,"Right handed","Junior College","Chinese","Buddhism","Singaporean","Yes"
3,27,"Social",1,1,20,"Indirect","TRUTH","Is your house on the 6th floor of the building?",NA,"None",3.63271223939955,33,28,10,71,33,48,81,NA,0.744511285450619,NA,43,18,21,4,1.83333333333333,2,3.14285714285714,3.8,3.75,3.33333333333333,4,3.23244047619048,3.2,-0.375,6.15,5.025,"Female",21,"Right handed","Junior College","Chinese","Buddhism","Singaporean","Yes"
3,28,"Social",1,1,16,"Indirect","LIE","Do you have 3 siblings?",NA,"None",5.63264615414664,33,28,10,71,33,48,81,NA,0.744511285450619,NA,43,18,21,4,1.83333333333333,2,3.14285714285714,3.8,3.75,3.33333333333333,4,3.23244047619048,3.2,-0.375,6.15,5.025,"Female",21,"Right handed","Junior College","Chinese","Buddhism","Singaporean","Yes"
3,29,"Social",1,1,17,"Direct","LIE","Where did you celebrate your 21st birthday?",NA,"None",4.24934139382094,33,28,10,71,33,48,81,NA,0.744511285450619,NA,43,18,21,4,1.83333333333333,2,3.14285714285714,3.8,3.75,3.33333333333333,4,3.23244047619048,3.2,-0.375,6.15,5.025,"Female",21,"Right handed","Junior College","Chinese","Buddhism","Singaporean","Yes"
3,30,"Social",1,0,18,"Indirect","TRUTH","Was the last country you visited Australia?",NA,"None",3.49992717802525,33,28,10,71,33,48,81,NA,0.744511285450619,NA,43,18,21,4,1.83333333333333,2,3.14285714285714,3.8,3.75,3.33333333333333,4,3.23244047619048,3.2,-0.375,6.15,5.025,"Female",21,"Right handed","Junior College","Chinese","Buddhism","Singaporean","Yes"
3,31,"Social",1,1,16,"Indirect","TRUTH","Do you have 0 siblings?",NA,"None",2.69989715097472,33,28,10,71,33,48,81,NA,0.744511285450619,NA,43,18,21,4,1.83333333333333,2,3.14285714285714,3.8,3.75,3.33333333333333,4,3.23244047619048,3.2,-0.375,6.15,5.025,"Female",21,"Right handed","Junior College","Chinese","Buddhism","Singaporean","Yes"
3,32,"Social",1,1,12,"Direct","TRUTH","What was your favourite subject back in secondary school?",NA,"None",4.03291331790388,33,28,10,71,33,48,81,NA,0.744511285450619,NA,43,18,21,4,1.83333333333333,2,3.14285714285714,3.8,3.75,3.33333333333333,4,3.23244047619048,3.2,-0.375,6.15,5.025,"Female",21,"Right handed","Junior College","Chinese","Buddhism","Singaporean","Yes"
3,33,"Social",1,1,2,"Indirect","LIE","Are you from Naval Base Secondary School?",NA,"None",3.59967894153669,33,28,10,71,33,48,81,NA,0.744511285450619,NA,43,18,21,4,1.83333333333333,2,3.14285714285714,3.8,3.75,3.33333333333333,4,3.23244047619048,3.2,-0.375,6.15,5.025,"Female",21,"Right handed","Junior College","Chinese","Buddhism","Singaporean","Yes"
3,34,"Social",1,1,19,"Direct","LIE","Which MRT station is closest to your house?",NA,"None",4.09962344262749,33,28,10,71,33,48,81,NA,0.744511285450619,NA,43,18,21,4,1.83333333333333,2,3.14285714285714,3.8,3.75,3.33333333333333,4,3.23244047619048,3.2,-0.375,6.15,5.025,"Female",21,"Right handed","Junior College","Chinese","Buddhism","Singaporean","Yes"
3,35,"Social",1,1,23,"Indirect","TRUTH","Are you studying Materials Science and Engineering course in NTU?",NA,"None",4.19932740693912,33,28,10,71,33,48,81,NA,0.744511285450619,NA,43,18,21,4,1.83333333333333,2,3.14285714285714,3.8,3.75,3.33333333333333,4,3.23244047619048,3.2,-0.375,6.15,5.025,"Female",21,"Right handed","Junior College","Chinese","Buddhism","Singaporean","Yes"
3,36,"Social",1,0,18,"Direct","LIE","What was the last country you visited?",NA,"None",3.73318388219923,33,28,10,71,33,48,81,NA,0.744511285450619,NA,43,18,21,4,1.83333333333333,2,3.14285714285714,3.8,3.75,3.33333333333333,4,3.23244047619048,3.2,-0.375,6.15,5.025,"Female",21,"Right handed","Junior College","Chinese","Buddhism","Singaporean","Yes"
3,37,"Social",1,1,30,"Direct","TRUTH","What brand of laptop do you mainly use?",NA,"None",3.79936532536522,33,28,10,71,33,48,81,NA,0.744511285450619,NA,43,18,21,4,1.83333333333333,2,3.14285714285714,3.8,3.75,3.33333333333333,4,3.23244047619048,3.2,-0.375,6.15,5.025,"Female",21,"Right handed","Junior College","Chinese","Buddhism","Singaporean","Yes"
3,38,"Social",1,1,6,"Indirect","LIE","Were you in the NPCC CCA during secondary school?",NA,"None",4.19964371761307,33,28,10,71,33,48,81,NA,0.744511285450619,NA,43,18,21,4,1.83333333333333,2,3.14285714285714,3.8,3.75,3.33333333333333,4,3.23244047619048,3.2,-0.375,6.15,5.025,"Female",21,"Right handed","Junior College","Chinese","Buddhism","Singaporean","Yes"
3,39,"Social",1,1,29,"Direct","LIE","What brand of handphone do you use?",NA,"None",3.36678281798959,33,28,10,71,33,48,81,NA,0.744511285450619,NA,43,18,21,4,1.83333333333333,2,3.14285714285714,3.8,3.75,3.33333333333333,4,3.23244047619048,3.2,-0.375,6.15,5.025,"Female",21,"Right handed","Junior College","Chinese","Buddhism","Singaporean","Yes"
3,40,"Social",1,1,12,"Direct","LIE","What was your favourite subject back in secondary school?",NA,"None",4.01600769674405,33,28,10,71,33,48,81,NA,0.744511285450619,NA,43,18,21,4,1.83333333333333,2,3.14285714285714,3.8,3.75,3.33333333333333,4,3.23244047619048,3.2,-0.375,6.15,5.025,"Female",21,"Right handed","Junior College","Chinese","Buddhism","Singaporean","Yes"
3,41,"Polygraph",1,1,2,"Indirect","TRUTH","Are you from Anderson Secondary School?",NA,"None",3.76629834296182,33,28,10,71,33,48,81,NA,0.744511285450619,NA,43,18,21,4,1.83333333333333,2,3.14285714285714,3.8,3.75,3.33333333333333,4,3.23244047619048,3.2,-0.375,6.15,5.025,"Female",21,"Right handed","Junior College","Chinese","Buddhism","Singaporean","Yes"
3,42,"Polygraph",1,1,29,"Indirect","TRUTH","Do you use a Apple phone?",NA,"None",3.51647542603314,33,28,10,71,33,48,81,NA,0.744511285450619,NA,43,18,21,4,1.83333333333333,2,3.14285714285714,3.8,3.75,3.33333333333333,4,3.23244047619048,3.2,-0.375,6.15,5.025,"Female",21,"Right handed","Junior College","Chinese","Buddhism","Singaporean","Yes"
3,43,"Polygraph",1,1,28,"Direct","TRUTH","What religion do you practice?",NA,"None",2.84918747283518,33,28,10,71,33,48,81,NA,0.744511285450619,NA,43,18,21,4,1.83333333333333,2,3.14285714285714,3.8,3.75,3.33333333333333,4,3.23244047619048,3.2,-0.375,6.15,5.025,"Female",21,"Right handed","Junior College","Chinese","Buddhism","Singaporean","Yes"
3,44,"Polygraph",1,1,23,"Direct","TRUTH","What course are you studying?",NA,"None",4.63282708637416,33,28,10,71,33,48,81,NA,0.744511285450619,NA,43,18,21,4,1.83333333333333,2,3.14285714285714,3.8,3.75,3.33333333333333,4,3.23244047619048,3.2,-0.375,6.15,5.025,"Female",21,"Right handed","Junior College","Chinese","Buddhism","Singaporean","Yes"
3,45,"Polygraph",1,1,14,"Direct","LIE","What is your favourite flavour?(E.g. chocolate, vanilla, milktea; it can be a complicated flavour)",NA,"None",3.39975708862767,33,28,10,71,33,48,81,NA,0.744511285450619,NA,43,18,21,4,1.83333333333333,2,3.14285714285714,3.8,3.75,3.33333333333333,4,3.23244047619048,3.2,-0.375,6.15,5.025,"Female",21,"Right handed","Junior College","Chinese","Buddhism","Singaporean","Yes"
3,46,"Polygraph",1,1,17,"Indirect","LIE","Did you celebrate your 21st birthday at Marina Bay Sands?",NA,"None",4.26588033838198,33,28,10,71,33,48,81,NA,0.744511285450619,NA,43,18,21,4,1.83333333333333,2,3.14285714285714,3.8,3.75,3.33333333333333,4,3.23244047619048,3.2,-0.375,6.15,5.025,"Female",21,"Right handed","Junior College","Chinese","Buddhism","Singaporean","Yes"
3,47,"Polygraph",1,1,12,"Indirect","LIE","Was your favourite subject Chemistry back in secondary school?",NA,"None",3.91661458974704,33,28,10,71,33,48,81,NA,0.744511285450619,NA,43,18,21,4,1.83333333333333,2,3.14285714285714,3.8,3.75,3.33333333333333,4,3.23244047619048,3.2,-0.375,6.15,5.025,"Female",21,"Right handed","Junior College","Chinese","Buddhism","Singaporean","Yes"
3,48,"Polygraph",1,1,14,"Direct","TRUTH","What is your favourite flavour?(E.g. chocolate, vanilla, milktea; it can be a complicated flavour)",NA,"None",3.13311067549512,33,28,10,71,33,48,81,NA,0.744511285450619,NA,43,18,21,4,1.83333333333333,2,3.14285714285714,3.8,3.75,3.33333333333333,4,3.23244047619048,3.2,-0.375,6.15,5.025,"Female",21,"Right handed","Junior College","Chinese","Buddhism","Singaporean","Yes"
3,49,"Polygraph",1,0,25,"Indirect","TRUTH","Is your dad 53 years old this year?",NA,"None",6.58303284877911,33,28,10,71,33,48,81,NA,0.744511285450619,NA,43,18,21,4,1.83333333333333,2,3.14285714285714,3.8,3.75,3.33333333333333,4,3.23244047619048,3.2,-0.375,6.15,5.025,"Female",21,"Right handed","Junior College","Chinese","Buddhism","Singaporean","Yes"
3,50,"Polygraph",1,1,1,"Direct","TRUTH","Which primary school are you from?",NA,"None",3.11668369080871,33,28,10,71,33,48,81,NA,0.744511285450619,NA,43,18,21,4,1.83333333333333,2,3.14285714285714,3.8,3.75,3.33333333333333,4,3.23244047619048,3.2,-0.375,6.15,5.025,"Female",21,"Right handed","Junior College","Chinese","Buddhism","Singaporean","Yes"
3,51,"Polygraph",0,0,24,"Indirect","TRUTH","Is your mum 51 years old this year?",NA,"None",4.73276010341942,33,28,10,71,33,48,81,NA,0.744511285450619,NA,43,18,21,4,1.83333333333333,2,3.14285714285714,3.8,3.75,3.33333333333333,4,3.23244047619048,3.2,-0.375,6.15,5.025,"Female",21,"Right handed","Junior College","Chinese","Buddhism","Singaporean","Yes"
3,52,"Polygraph",1,1,15,"Direct","TRUTH","Which polytechnic or junior college are you from?",NA,"None",3.19981021340936,33,28,10,71,33,48,81,NA,0.744511285450619,NA,43,18,21,4,1.83333333333333,2,3.14285714285714,3.8,3.75,3.33333333333333,4,3.23244047619048,3.2,-0.375,6.15,5.025,"Female",21,"Right handed","Junior College","Chinese","Buddhism","Singaporean","Yes"
3,53,"Polygraph",1,0,18,"Indirect","LIE","Was the last country you visited Bei Jing, China?",NA,"None",3.49980816058815,33,28,10,71,33,48,81,NA,0.744511285450619,NA,43,18,21,4,1.83333333333333,2,3.14285714285714,3.8,3.75,3.33333333333333,4,3.23244047619048,3.2,-0.375,6.15,5.025,"Female",21,"Right handed","Junior College","Chinese","Buddhism","Singaporean","Yes"
3,54,"Polygraph",1,1,29,"Indirect","LIE","Do you use a Xiaomi phone?",NA,"None",2.4496010504663,33,28,10,71,33,48,81,NA,0.744511285450619,NA,43,18,21,4,1.83333333333333,2,3.14285714285714,3.8,3.75,3.33333333333333,4,3.23244047619048,3.2,-0.375,6.15,5.025,"Female",21,"Right handed","Junior College","Chinese","Buddhism","Singaporean","Yes"
3,55,"Polygraph",1,1,1,"Indirect","LIE","Are you from Woodlands Primary School?",NA,"None",2.80025683436543,33,28,10,71,33,48,81,NA,0.744511285450619,NA,43,18,21,4,1.83333333333333,2,3.14285714285714,3.8,3.75,3.33333333333333,4,3.23244047619048,3.2,-0.375,6.15,5.025,"Female",21,"Right handed","Junior College","Chinese","Buddhism","Singaporean","Yes"
3,56,"Polygraph",1,1,2,"Direct","LIE","Which secondary school did you attend?",NA,"None",5.0163442180492,33,28,10,71,33,48,81,NA,0.744511285450619,NA,43,18,21,4,1.83333333333333,2,3.14285714285714,3.8,3.75,3.33333333333333,4,3.23244047619048,3.2,-0.375,6.15,5.025,"Female",21,"Right handed","Junior College","Chinese","Buddhism","Singaporean","Yes"
3,57,"Polygraph",1,1,26,"Direct","LIE","How often do you smoke?",NA,"None",3.86633914895356,33,28,10,71,33,48,81,NA,0.744511285450619,NA,43,18,21,4,1.83333333333333,2,3.14285714285714,3.8,3.75,3.33333333333333,4,3.23244047619048,3.2,-0.375,6.15,5.025,"Female",21,"Right handed","Junior College","Chinese","Buddhism","Singaporean","Yes"
3,58,"Polygraph",1,1,19,"Indirect","TRUTH","Is the Redhill station the closest MRT to your house?",NA,"None",4.76618830813095,33,28,10,71,33,48,81,NA,0.744511285450619,NA,43,18,21,4,1.83333333333333,2,3.14285714285714,3.8,3.75,3.33333333333333,4,3.23244047619048,3.2,-0.375,6.15,5.025,"Female",21,"Right handed","Junior College","Chinese","Buddhism","Singaporean","Yes"
3,59,"Polygraph",1,1,6,"Direct","LIE","What CCA (Co-curricular Activity) did you join in secondary school?",NA,"None",3.3496715631336,33,28,10,71,33,48,81,NA,0.744511285450619,NA,43,18,21,4,1.83333333333333,2,3.14285714285714,3.8,3.75,3.33333333333333,4,3.23244047619048,3.2,-0.375,6.15,5.025,"Female",21,"Right handed","Junior College","Chinese","Buddhism","Singaporean","Yes"
3,60,"Polygraph",1,1,26,"Direct","TRUTH","How often do you smoke?",NA,"None",2.06698376871645,33,28,10,71,33,48,81,NA,0.744511285450619,NA,43,18,21,4,1.83333333333333,2,3.14285714285714,3.8,3.75,3.33333333333333,4,3.23244047619048,3.2,-0.375,6.15,5.025,"Female",21,"Right handed","Junior College","Chinese","Buddhism","Singaporean","Yes"
3,61,"Polygraph",1,1,22,"Direct","LIE","Which year in NTU are you currently in? (Eg. 1, 2, 3, 4)",NA,"None",3.43286192556843,33,28,10,71,33,48,81,NA,0.744511285450619,NA,43,18,21,4,1.83333333333333,2,3.14285714285714,3.8,3.75,3.33333333333333,4,3.23244047619048,3.2,-0.375,6.15,5.025,"Female",21,"Right handed","Junior College","Chinese","Buddhism","Singaporean","Yes"
3,62,"Polygraph",1,1,16,"Direct","LIE","How many siblings do you have? (Eg. 0, 1, 2, 3)",NA,"None",2.43362350948155,33,28,10,71,33,48,81,NA,0.744511285450619,NA,43,18,21,4,1.83333333333333,2,3.14285714285714,3.8,3.75,3.33333333333333,4,3.23244047619048,3.2,-0.375,6.15,5.025,"Female",21,"Right handed","Junior College","Chinese","Buddhism","Singaporean","Yes"
3,63,"Polygraph",1,1,12,"Indirect","TRUTH","Was your favourite subject Social Studies back in secondary school?",NA,"None",2.74984056130052,33,28,10,71,33,48,81,NA,0.744511285450619,NA,43,18,21,4,1.83333333333333,2,3.14285714285714,3.8,3.75,3.33333333333333,4,3.23244047619048,3.2,-0.375,6.15,5.025,"Female",21,"Right handed","Junior College","Chinese","Buddhism","Singaporean","Yes"
3,64,"Polygraph",1,1,23,"Direct","LIE","What course are you studying?",NA,"None",3.06595014454797,33,28,10,71,33,48,81,NA,0.744511285450619,NA,43,18,21,4,1.83333333333333,2,3.14285714285714,3.8,3.75,3.33333333333333,4,3.23244047619048,3.2,-0.375,6.15,5.025,"Female",21,"Right handed","Junior College","Chinese","Buddhism","Singaporean","Yes"
3,65,"Polygraph",1,1,4,"Direct","LIE","Who is your favourite teacher in secondary school?",NA,"None",4.43299794569612,33,28,10,71,33,48,81,NA,0.744511285450619,NA,43,18,21,4,1.83333333333333,2,3.14285714285714,3.8,3.75,3.33333333333333,4,3.23244047619048,3.2,-0.375,6.15,5.025,"Female",21,"Right handed","Junior College","Chinese","Buddhism","Singaporean","Yes"
3,66,"Polygraph",1,1,20,"Indirect","LIE","Is your house on the 15th floor of the building?",NA,"None",2.56689105695114,33,28,10,71,33,48,81,NA,0.744511285450619,NA,43,18,21,4,1.83333333333333,2,3.14285714285714,3.8,3.75,3.33333333333333,4,3.23244047619048,3.2,-0.375,6.15,5.025,"Female",21,"Right handed","Junior College","Chinese","Buddhism","Singaporean","Yes"
3,67,"Polygraph",1,1,22,"Direct","TRUTH","Which year in NTU are you currently in? (Eg. 1, 2, 3, 4)",NA,"None",3.31654298678041,33,28,10,71,33,48,81,NA,0.744511285450619,NA,43,18,21,4,1.83333333333333,2,3.14285714285714,3.8,3.75,3.33333333333333,4,3.23244047619048,3.2,-0.375,6.15,5.025,"Female",21,"Right handed","Junior College","Chinese","Buddhism","Singaporean","Yes"
3,68,"Polygraph",1,1,15,"Indirect","LIE","Are you from Serangoon Junior College?",NA,"None",3.24953098734841,33,28,10,71,33,48,81,NA,0.744511285450619,NA,43,18,21,4,1.83333333333333,2,3.14285714285714,3.8,3.75,3.33333333333333,4,3.23244047619048,3.2,-0.375,6.15,5.025,"Female",21,"Right handed","Junior College","Chinese","Buddhism","Singaporean","Yes"
3,69,"Polygraph",1,1,6,"Direct","TRUTH","What CCA (Co-curricular Activity) did you join in secondary school?",NA,"None",3.39944687345996,33,28,10,71,33,48,81,NA,0.744511285450619,NA,43,18,21,4,1.83333333333333,2,3.14285714285714,3.8,3.75,3.33333333333333,4,3.23244047619048,3.2,-0.375,6.15,5.025,"Female",21,"Right handed","Junior College","Chinese","Buddhism","Singaporean","Yes"
3,70,"Polygraph",1,1,4,"Indirect","TRUTH","Is Mr Tan your favourite teacher in secondary school?",NA,"None",5.61611458752304,33,28,10,71,33,48,81,NA,0.744511285450619,NA,43,18,21,4,1.83333333333333,2,3.14285714285714,3.8,3.75,3.33333333333333,4,3.23244047619048,3.2,-0.375,6.15,5.025,"Female",21,"Right handed","Junior College","Chinese","Buddhism","Singaporean","Yes"
3,71,"Polygraph",1,1,25,"Direct","LIE","How old is your dad? (Eg. 45, 52)",NA,"None",2.61672026198357,33,28,10,71,33,48,81,NA,0.744511285450619,NA,43,18,21,4,1.83333333333333,2,3.14285714285714,3.8,3.75,3.33333333333333,4,3.23244047619048,3.2,-0.375,6.15,5.025,"Female",21,"Right handed","Junior College","Chinese","Buddhism","Singaporean","Yes"
3,72,"Polygraph",1,1,16,"Direct","TRUTH","How many siblings do you have? (Eg. 0, 1, 2, 3)",NA,"None",2.04944712948054,33,28,10,71,33,48,81,NA,0.744511285450619,NA,43,18,21,4,1.83333333333333,2,3.14285714285714,3.8,3.75,3.33333333333333,4,3.23244047619048,3.2,-0.375,6.15,5.025,"Female",21,"Right handed","Junior College","Chinese","Buddhism","Singaporean","Yes"
3,73,"Polygraph",1,1,30,"Indirect","LIE","Do you use a Dell laptop?",NA,"None",2.23311170190573,33,28,10,71,33,48,81,NA,0.744511285450619,NA,43,18,21,4,1.83333333333333,2,3.14285714285714,3.8,3.75,3.33333333333333,4,3.23244047619048,3.2,-0.375,6.15,5.025,"Female",21,"Right handed","Junior College","Chinese","Buddhism","Singaporean","Yes"
3,74,"Polygraph",1,1,24,"Direct","LIE","How old is your mum? (Eg. 45, 52)",NA,"None",2.83329494390637,33,28,10,71,33,48,81,NA,0.744511285450619,NA,43,18,21,4,1.83333333333333,2,3.14285714285714,3.8,3.75,3.33333333333333,4,3.23244047619048,3.2,-0.375,6.15,5.025,"Female",21,"Right handed","Junior College","Chinese","Buddhism","Singaporean","Yes"
3,75,"Polygraph",1,1,28,"Indirect","LIE","Is your religion Catholicism?",NA,"None",2.00001539848745,33,28,10,71,33,48,81,NA,0.744511285450619,NA,43,18,21,4,1.83333333333333,2,3.14285714285714,3.8,3.75,3.33333333333333,4,3.23244047619048,3.2,-0.375,6.15,5.025,"Female",21,"Right handed","Junior College","Chinese","Buddhism","Singaporean","Yes"
3,76,"Polygraph",1,1,19,"Indirect","LIE","Is the Seng Kang station the closest MRT to your house?",NA,"None",3.81641049543396,33,28,10,71,33,48,81,NA,0.744511285450619,NA,43,18,21,4,1.83333333333333,2,3.14285714285714,3.8,3.75,3.33333333333333,4,3.23244047619048,3.2,-0.375,6.15,5.025,"Female",21,"Right handed","Junior College","Chinese","Buddhism","Singaporean","Yes"
3,77,"Polygraph",1,0,18,"Direct","TRUTH","What was the last country you visited?",NA,"None",2.66625400865451,33,28,10,71,33,48,81,NA,0.744511285450619,NA,43,18,21,4,1.83333333333333,2,3.14285714285714,3.8,3.75,3.33333333333333,4,3.23244047619048,3.2,-0.375,6.15,5.025,"Female",21,"Right handed","Junior College","Chinese","Buddhism","Singaporean","Yes"
3,78,"Polygraph",1,1,20,"Direct","TRUTH","Which floor of the building is your house on?",NA,"None",2.46620190981776,33,28,10,71,33,48,81,NA,0.744511285450619,NA,43,18,21,4,1.83333333333333,2,3.14285714285714,3.8,3.75,3.33333333333333,4,3.23244047619048,3.2,-0.375,6.15,5.025,"Female",21,"Right handed","Junior College","Chinese","Buddhism","Singaporean","Yes"
3,79,"Polygraph",1,1,17,"Direct","TRUTH","Where did you celebrate your 21st birthday?",NA,"None",3.34998306166381,33,28,10,71,33,48,81,NA,0.744511285450619,NA,43,18,21,4,1.83333333333333,2,3.14285714285714,3.8,3.75,3.33333333333333,4,3.23244047619048,3.2,-0.375,6.15,5.025,"Female",21,"Right handed","Junior College","Chinese","Buddhism","Singaporean","Yes"
3,80,"Polygraph",1,1,30,"Indirect","TRUTH","Do you use a Lenovo laptop?",NA,"None",2.50014436105266,33,28,10,71,33,48,81,NA,0.744511285450619,NA,43,18,21,4,1.83333333333333,2,3.14285714285714,3.8,3.75,3.33333333333333,4,3.23244047619048,3.2,-0.375,6.15,5.025,"Female",21,"Right handed","Junior College","Chinese","Buddhism","Singaporean","Yes"
4,1,"Social",1,1,2,"Direct","LIE","Which secondary school did you attend?",NA,"None",6.98234145645984,45,34,13,92,39,31,70,0.753333333333333,0.473442879499217,0.821287976033798,101,77,60,4.5,1.5,3,4.14285714285714,3.6,3.75,2.33333333333333,3,3.22827380952381,0.925,-2.425,1.85,2.975,"Male",24,"Right handed","Junior College","Chinese","Christianity","Singaporean","Yes"
4,2,"Social",1,1,17,"Direct","TRUTH","Where did you celebrate your 21st birthday?",1,"6.566309122135863",6.49946907279082,45,34,13,92,39,31,70,0.753333333333333,0.473442879499217,0.821287976033798,101,77,60,4.5,1.5,3,4.14285714285714,3.6,3.75,2.33333333333333,3,3.22827380952381,0.925,-2.425,1.85,2.975,"Male",24,"Right handed","Junior College","Chinese","Christianity","Singaporean","Yes"
4,3,"Social",1,1,28,"Direct","TRUTH","What religion do you practice?",0.886111111111111,"2.7503666765987873",3.2994923631195,45,34,13,92,39,31,70,0.753333333333333,0.473442879499217,0.821287976033798,101,77,60,4.5,1.5,3,4.14285714285714,3.6,3.75,2.33333333333333,3,3.22827380952381,0.925,-2.425,1.85,2.975,"Male",24,"Right handed","Junior College","Chinese","Christianity","Singaporean","Yes"
4,4,"Social",1,1,14,"Indirect","TRUTH","Is your favourite flavour Spicy Cod Roe?",0.775,"2.200258373748511",4.29968965612352,45,34,13,92,39,31,70,0.753333333333333,0.473442879499217,0.821287976033798,101,77,60,4.5,1.5,3,4.14285714285714,3.6,3.75,2.33333333333333,3,3.22827380952381,0.925,-2.425,1.85,2.975,"Male",24,"Right handed","Junior College","Chinese","Christianity","Singaporean","Yes"
4,5,"Social",1,1,7,"Direct","TRUTH","What is your favourite sport?",0.811111111111111,"2.883673682808876",4.93310156464577,45,34,13,92,39,31,70,0.753333333333333,0.473442879499217,0.821287976033798,101,77,60,4.5,1.5,3,4.14285714285714,3.6,3.75,2.33333333333333,3,3.22827380952381,0.925,-2.425,1.85,2.975,"Male",24,"Right handed","Junior College","Chinese","Christianity","Singaporean","Yes"
4,6,"Social",1,1,2,"Direct","TRUTH","Which secondary school did you attend?",0.82962962962963,"2.7670419623609632",4.33291479363106,45,34,13,92,39,31,70,0.753333333333333,0.473442879499217,0.821287976033798,101,77,60,4.5,1.5,3,4.14285714285714,3.6,3.75,2.33333333333333,3,3.22827380952381,0.925,-2.425,1.85,2.975,"Male",24,"Right handed","Junior College","Chinese","Christianity","Singaporean","Yes"
4,7,"Social",1,1,21,"Indirect","LIE","Are you from School of Engineering in NTU?",0.714814814814815,"3.449618053389713",3.96623527351767,45,34,13,92,39,31,70,0.753333333333333,0.473442879499217,0.821287976033798,101,77,60,4.5,1.5,3,4.14285714285714,3.6,3.75,2.33333333333333,3,3.22827380952381,0.925,-2.425,1.85,2.975,"Male",24,"Right handed","Junior College","Chinese","Christianity","Singaporean","Yes"
4,8,"Social",1,1,14,"Direct","LIE","What is your favourite flavour?(E.g. chocolate, vanilla, milktea; it can be a complicated flavour)",0.759259259259259,"3.483962468802929",3.76602758653462,45,34,13,92,39,31,70,0.753333333333333,0.473442879499217,0.821287976033798,101,77,60,4.5,1.5,3,4.14285714285714,3.6,3.75,2.33333333333333,3,3.22827380952381,0.925,-2.425,1.85,2.975,"Male",24,"Right handed","Junior College","Chinese","Christianity","Singaporean","Yes"
4,9,"Social",1,1,22,"Indirect","TRUTH","Are you in your 1st year in NTU?",0.759259259259259,"0.7984093355480582",3.83287212718278,45,34,13,92,39,31,70,0.753333333333333,0.473442879499217,0.821287976033798,101,77,60,4.5,1.5,3,4.14285714285714,3.6,3.75,2.33333333333333,3,3.22827380952381,0.925,-2.425,1.85,2.975,"Male",24,"Right handed","Junior College","Chinese","Christianity","Singaporean","Yes"
4,10,"Social",1,1,7,"Indirect","LIE","Is your favourite sport Dance, Martial Arts?",0.711111111111111,"1.6662780686747283",3.66654401342385,45,34,13,92,39,31,70,0.753333333333333,0.473442879499217,0.821287976033798,101,77,60,4.5,1.5,3,4.14285714285714,3.6,3.75,2.33333333333333,3,3.22827380952381,0.925,-2.425,1.85,2.975,"Male",24,"Right handed","Junior College","Chinese","Christianity","Singaporean","Yes"
4,11,"Social",1,1,19,"Indirect","LIE","Is the Woodlands station the closest MRT to your house?",0.786111111111111,"4.9830860379152",4.4328603213653,45,34,13,92,39,31,70,0.753333333333333,0.473442879499217,0.821287976033798,101,77,60,4.5,1.5,3,4.14285714285714,3.6,3.75,2.33333333333333,3,3.22827380952381,0.925,-2.425,1.85,2.975,"Male",24,"Right handed","Junior College","Chinese","Christianity","Singaporean","Yes"
4,12,"Social",1,1,16,"Direct","TRUTH","How many siblings do you have? (Eg. 0, 1, 2, 3)",0.673148148148148,"4.198360509471968",3.16642659995705,45,34,13,92,39,31,70,0.753333333333333,0.473442879499217,0.821287976033798,101,77,60,4.5,1.5,3,4.14285714285714,3.6,3.75,2.33333333333333,3,3.22827380952381,0.925,-2.425,1.85,2.975,"Male",24,"Right handed","Junior College","Chinese","Christianity","Singaporean","Yes"
4,13,"Social",1,1,13,"Indirect","LIE","Is your dream job a Scientist when you were growing up?",0.734259259259259,"2.3500032720621675",4.63293359265663,45,34,13,92,39,31,70,0.753333333333333,0.473442879499217,0.821287976033798,101,77,60,4.5,1.5,3,4.14285714285714,3.6,3.75,2.33333333333333,3,3.22827380952381,0.925,-2.425,1.85,2.975,"Male",24,"Right handed","Junior College","Chinese","Christianity","Singaporean","Yes"
4,14,"Social",1,1,8,"Direct","TRUTH","What is your favourite food?",0.805555555555556,"2.168009757529944",3.96646528854035,45,34,13,92,39,31,70,0.753333333333333,0.473442879499217,0.821287976033798,101,77,60,4.5,1.5,3,4.14285714285714,3.6,3.75,2.33333333333333,3,3.22827380952381,0.925,-2.425,1.85,2.975,"Male",24,"Right handed","Junior College","Chinese","Christianity","Singaporean","Yes"
