ID,trial,condition_x,inclusion,inclusion2,item,style,instruction,question,DT_confidence,DT_confidenceRT,DT_RT,yoni_affective,yoni_cognitive,yoni_physical,yoni_total,BES_cognitive,BES_affective,BES_total,HCT_confidence,HCT_accuracy,HCT_awareness,HCT_guess,HCT_noguess,HCT_onebreath,MAIA_noticing,MAIA_not_distracting,MAIA_not_worrying,MAIA_attention_regulation,MAIA_emotional_awareness,MAIA_self_regulation,MAIA_body_listening,MAIA_trusting,MAIA_total,lie_ability,lie_frequency,lie_negativity,lie_contextuality,Gender,Age,Handedness,Polyjc,Ethnicity,Religion,Nationality,RaisedinSG,condition_y,ECG_Rate_MeanRaw,ECG_Rate_Mean
1,1,Social,1,1,19,Direct,TRUTH,Which MRT station is closest to your house?,0.287037037037037,5.497205173363909,5.66611413878854,45,31,14,90,37,39,76,0.36074074074074103,0.75130691069389,-0.775236333122807,69,6,48,2.5,2.5,1.8,2.14285714285714,2.6,2.0,3.0,3.3333333333333304,2.48452380952381,-3.1,-7.7,4.975,10.0,Female,20,Right handed,Junior College,Chinese,Not religious,Singaporean,Yes,Social,119.28093615501633,-0.8540610011147862
1,2,Social,1,1,18,Direct,TRUTH,What was the last country you visited?,0.35555555555555607,4.735541135072708,4.1665231612278095,45,31,14,90,37,39,76,0.36074074074074103,0.75130691069389,-0.775236333122807,69,6,48,2.5,2.5,1.8,2.14285714285714,2.6,2.0,3.0,3.3333333333333304,2.48452380952381,-3.1,-7.7,4.975,10.0,Female,20,Right handed,Junior College,Chinese,Not religious,Singaporean,Yes,Social,118.28655938887336,1.8259263858953716
1,3,Social,1,1,14,Indirect,LIE,Is your favourite flavour Vanilla?,0.301851851851852,4.499679518863559,3.83279673859943,45,31,14,90,37,39,76,0.36074074074074103,0.75130691069389,-0.775236333122807,69,6,48,2.5,2.5,1.8,2.14285714285714,2.6,2.0,3.0,3.3333333333333304,2.48452380952381,-3.1,-7.7,4.975,10.0,Female,20,Right handed,Junior College,Chinese,Not religious,Singaporean,Yes,Social,124.12202801114167,1.12595174802793
1,4,Social,1,1,21,Indirect,LIE,Are you from Nanyang Business School in NTU?,0.31574074074074104,3.76635416271165,3.9497543940087794,45,31,14,90,37,39,76,0.36074074074074103,0.75130691069389,-0.775236333122807,69,6,48,2.5,2.5,1.8,2.14285714285714,2.6,2.0,3.0,3.3333333333333304,2.48452380952381,-3.1,-7.7,4.975,10.0,Female,20,Right handed,Junior College,Chinese,Not religious,Singaporean,Yes,Social,133.86136872227317,1.1275830650938872
1,5,Social,1,1,17,Indirect,LIE,Did you celebrate your 21st birthday at MBS?,0.26944444444444393,2.2662168595707044,4.46599531383254,45,31,14,90,37,39,76,0.36074074074074103,0.75130691069389,-0.775236333122807,69,6,48,2.5,2.5,1.8,2.14285714285714,2.6,2.0,3.0,3.3333333333333304,2.48452380952381,-3.1,-7.7,4.975,10.0,Female,20,Right handed,Junior College,Chinese,Not religious,Singaporean,Yes,Social,119.35920876397793,3.2230733497710844
1,6,Social,1,1,20,Direct,TRUTH,Which floor of the building is your house on?,0.31574074074074104,2.502733232686296,3.93290844175499,45,31,14,90,37,39,76,0.36074074074074103,0.75130691069389,-0.775236333122807,69,6,48,2.5,2.5,1.8,2.14285714285714,2.6,2.0,3.0,3.3333333333333304,2.48452380952381,-3.1,-7.7,4.975,10.0,Female,20,Right handed,Junior College,Chinese,Not religious,Singaporean,Yes,Social,109.18925215270272,-0.4371211876685095
1,7,Social,1,1,26,Direct,LIE,How often do you smoke?,0.321296296296296,2.4826750905485824,2.8667616454185896,45,31,14,90,37,39,76,0.36074074074074103,0.75130691069389,-0.775236333122807,69,6,48,2.5,2.5,1.8,2.14285714285714,2.6,2.0,3.0,3.3333333333333304,2.48452380952381,-3.1,-7.7,4.975,10.0,Female,20,Right handed,Junior College,Chinese,Not religious,Singaporean,Yes,Social,111.01186025837775,1.8367871110787348
1,8,Social,1,1,1,Indirect,LIE,Are you from Temasek Primary School?,0.33333333333333304,2.200244900188409,3.8998013593954997,45,31,14,90,37,39,76,0.36074074074074103,0.75130691069389,-0.775236333122807,69,6,48,2.5,2.5,1.8,2.14285714285714,2.6,2.0,3.0,3.3333333333333304,2.48452380952381,-3.1,-7.7,4.975,10.0,Female,20,Right handed,Junior College,Chinese,Not religious,Singaporean,Yes,Social,119.57441165034479,-0.18168313320690288
1,9,Social,1,1,2,Direct,TRUTH,Which secondary school did you attend?,0.26851851851851805,2.950067496742122,3.0663113677874203,45,31,14,90,37,39,76,0.36074074074074103,0.75130691069389,-0.775236333122807,69,6,48,2.5,2.5,1.8,2.14285714285714,2.6,2.0,3.0,3.3333333333333304,2.48452380952381,-3.1,-7.7,4.975,10.0,Female,20,Right handed,Junior College,Chinese,Not religious,Singaporean,Yes,Social,107.42674448015178,0.21564738463226263
1,10,Social,1,1,23,Indirect,TRUTH,Are you studying Linguistics and Multilingual Studies course in NTU?,0.5,2.4004926877096295,4.86602797126397,45,31,14,90,37,39,76,0.36074074074074103,0.75130691069389,-0.775236333122807,69,6,48,2.5,2.5,1.8,2.14285714285714,2.6,2.0,3.0,3.3333333333333304,2.48452380952381,-3.1,-7.7,4.975,10.0,Female,20,Right handed,Junior College,Chinese,Not religious,Singaporean,Yes,Social,106.89016559936894,1.8988347782615165
1,11,Social,0,0,27,Indirect,TRUTH,Do you drink alcohol socially?,0.507407407407407,2.5355493476381525,3.39958161010873,45,31,14,90,37,39,76,0.36074074074074103,0.75130691069389,-0.775236333122807,69,6,48,2.5,2.5,1.8,2.14285714285714,2.6,2.0,3.0,3.3333333333333304,2.48452380952381,-3.1,-7.7,4.975,10.0,Female,20,Right handed,Junior College,Chinese,Not religious,Singaporean,Yes,Social,103.7491089974281,2.5461994335225455
1,12,Social,1,1,30,Indirect,LIE,Do you use a Acer laptop?,0.413888888888889,2.649663735413924,3.0996770166093497,45,31,14,90,37,39,76,0.36074074074074103,0.75130691069389,-0.775236333122807,69,6,48,2.5,2.5,1.8,2.14285714285714,2.6,2.0,3.0,3.3333333333333304,2.48452380952381,-3.1,-7.7,4.975,10.0,Female,20,Right handed,Junior College,Chinese,Not religious,Singaporean,Yes,Social,109.95263110061688,2.2015860164640912
1,13,Social,1,1,16,Indirect,TRUTH,Do you have 2 siblings?,0.522222222222222,2.2009702334180474,3.03332458611112,45,31,14,90,37,39,76,0.36074074074074103,0.75130691069389,-0.775236333122807,69,6,48,2.5,2.5,1.8,2.14285714285714,2.6,2.0,3.0,3.3333333333333304,2.48452380952381,-3.1,-7.7,4.975,10.0,Female,20,Right handed,Junior College,Chinese,Not religious,Singaporean,Yes,Social,107.99207114538923,3.0969109642842625
1,14,Social,1,1,2,Direct,LIE,Which secondary school did you attend?,0.334259259259259,2.966867253417149,2.96632092772052,45,31,14,90,37,39,76,0.36074074074074103,0.75130691069389,-0.775236333122807,69,6,48,2.5,2.5,1.8,2.14285714285714,2.6,2.0,3.0,3.3333333333333304,2.48452380952381,-3.1,-7.7,4.975,10.0,Female,20,Right handed,Junior College,Chinese,Not religious,Singaporean,Yes,Social,102.46333472881764,1.1437883501290287
1,15,Social,1,1,7,Direct,TRUTH,What is your favourite sport?,0.516666666666667,2.4176247951108962,3.13297305139713,45,31,14,90,37,39,76,0.36074074074074103,0.75130691069389,-0.775236333122807,69,6,48,2.5,2.5,1.8,2.14285714285714,2.6,2.0,3.0,3.3333333333333304,2.48452380952381,-3.1,-7.7,4.975,10.0,Female,20,Right handed,Junior College,Chinese,Not religious,Singaporean,Yes,Social,109.12825270018641,1.967037197543604
1,16,Social,1,1,23,Direct,LIE,What course are you studying?,0.37129629629629607,2.7160979703767225,2.56619619985577,45,31,14,90,37,39,76,0.36074074074074103,0.75130691069389,-0.775236333122807,69,6,48,2.5,2.5,1.8,2.14285714285714,2.6,2.0,3.0,3.3333333333333304,2.48452380952381,-3.1,-7.7,4.975,10.0,Female,20,Right handed,Junior College,Chinese,Not religious,Singaporean,Yes,Social,104.6571080717006,1.7312082588957622
1,17,Social,1,0,26,Indirect,TRUTH,Do you smoke regularly?,0.4916666666666671,2.866771911038086,3.28279205493163,45,31,14,90,37,39,76,0.36074074074074103,0.75130691069389,-0.775236333122807,69,6,48,2.5,2.5,1.8,2.14285714285714,2.6,2.0,3.0,3.3333333333333304,2.48452380952381,-3.1,-7.7,4.975,10.0,Female,20,Right handed,Junior College,Chinese,Not religious,Singaporean,Yes,Social,100.87148752125721,-0.4155999630018812
1,18,Social,1,0,30,Indirect,TRUTH,Do you use a Lenovo laptop?,0.35277777777777797,3.0834630442550406,3.43311600072775,45,31,14,90,37,39,76,0.36074074074074103,0.75130691069389,-0.775236333122807,69,6,48,2.5,2.5,1.8,2.14285714285714,2.6,2.0,3.0,3.3333333333333304,2.48452380952381,-3.1,-7.7,4.975,10.0,Female,20,Right handed,Junior College,Chinese,Not religious,Singaporean,Yes,Social,104.10335845754769,3.381794909435527
1,19,Social,1,1,29,Direct,TRUTH,What brand of handphone do you use?,0.52962962962963,5.017176378169097,2.69962286518421,45,31,14,90,37,39,76,0.36074074074074103,0.75130691069389,-0.775236333122807,69,6,48,2.5,2.5,1.8,2.14285714285714,2.6,2.0,3.0,3.3333333333333304,2.48452380952381,-3.1,-7.7,4.975,10.0,Female,20,Right handed,Junior College,Chinese,Not religious,Singaporean,Yes,Social,99.222488731805,2.1411361462050706
1,20,Social,1,1,22,Indirect,TRUTH,Are you in your 1st year in NTU?,0.50462962962963,2.3000290646450594,3.1667169256834304,45,31,14,90,37,39,76,0.36074074074074103,0.75130691069389,-0.775236333122807,69,6,48,2.5,2.5,1.8,2.14285714285714,2.6,2.0,3.0,3.3333333333333304,2.48452380952381,-3.1,-7.7,4.975,10.0,Female,20,Right handed,Junior College,Chinese,Not religious,Singaporean,Yes,Social,100.14773114116507,-0.9555010149933167
1,21,Social,1,1,7,Indirect,LIE,Is your favourite sport Hockey?,0.36759259259259297,3.233461376046762,3.06648748810403,45,31,14,90,37,39,76,0.36074074074074103,0.75130691069389,-0.775236333122807,69,6,48,2.5,2.5,1.8,2.14285714285714,2.6,2.0,3.0,3.3333333333333304,2.48452380952381,-3.1,-7.7,4.975,10.0,Female,20,Right handed,Junior College,Chinese,Not religious,Singaporean,Yes,Social,109.11824405561919,3.3419145402211257
1,22,Social,1,1,14,Direct,TRUTH,"What is your favourite flavour?(E.g. chocolate, vanilla, milktea; it can be a complicated flavour)",0.3666666666666671,2.733399782096967,3.2333920828532405,45,31,14,90,37,39,76,0.36074074074074103,0.75130691069389,-0.775236333122807,69,6,48,2.5,2.5,1.8,2.14285714285714,2.6,2.0,3.0,3.3333333333333304,2.48452380952381,-3.1,-7.7,4.975,10.0,Female,20,Right handed,Junior College,Chinese,Not religious,Singaporean,Yes,Social,101.34594904110378,-2.2140951484854554
1,23,Social,1,1,20,Indirect,LIE,Is your house on the 3rd floor of the building?,0.332407407407407,2.549293145071715,3.59982426464558,45,31,14,90,37,39,76,0.36074074074074103,0.75130691069389,-0.775236333122807,69,6,48,2.5,2.5,1.8,2.14285714285714,2.6,2.0,3.0,3.3333333333333304,2.48452380952381,-3.1,-7.7,4.975,10.0,Female,20,Right handed,Junior College,Chinese,Not religious,Singaporean,Yes,Social,105.0082539480908,4.046890190187739
1,24,Social,1,1,19,Direct,LIE,Which MRT station is closest to your house?,0.362037037037037,2.432671048445627,3.1662934670457594,45,31,14,90,37,39,76,0.36074074074074103,0.75130691069389,-0.775236333122807,69,6,48,2.5,2.5,1.8,2.14285714285714,2.6,2.0,3.0,3.3333333333333304,2.48452380952381,-3.1,-7.7,4.975,10.0,Female,20,Right handed,Junior College,Chinese,Not religious,Singaporean,Yes,Social,105.76016625809673,-0.06984198071482695
1,25,Social,1,1,10,Indirect,LIE,Do you hate eating Eggplant the most?,0.3583333333333329,3.93473893776536,3.39977088326123,45,31,14,90,37,39,76,0.36074074074074103,0.75130691069389,-0.775236333122807,69,6,48,2.5,2.5,1.8,2.14285714285714,2.6,2.0,3.0,3.3333333333333304,2.48452380952381,-3.1,-7.7,4.975,10.0,Female,20,Right handed,Junior College,Chinese,Not religious,Singaporean,Yes,Social,107.60068024823876,3.9255943023805457
1,26,Social,1,1,22,Indirect,LIE,Are you in your 3rd year in NTU?,0.35925925925925895,3.3327351446496323,3.2327536869561295,45,31,14,90,37,39,76,0.36074074074074103,0.75130691069389,-0.775236333122807,69,6,48,2.5,2.5,1.8,2.14285714285714,2.6,2.0,3.0,3.3333333333333304,2.48452380952381,-3.1,-7.7,4.975,10.0,Female,20,Right handed,Junior College,Chinese,Not religious,Singaporean,Yes,Social,111.47985219276461,2.949681068253483
1,27,Social,1,1,10,Direct,TRUTH,What food do you hate the most?,0.38888888888888895,2.583148016827181,2.73278480477165,45,31,14,90,37,39,76,0.36074074074074103,0.75130691069389,-0.775236333122807,69,6,48,2.5,2.5,1.8,2.14285714285714,2.6,2.0,3.0,3.3333333333333304,2.48452380952381,-3.1,-7.7,4.975,10.0,Female,20,Right handed,Junior College,Chinese,Not religious,Singaporean,Yes,Social,102.49193697970847,0.04001022975361934
1,28,Social,1,0,6,Indirect,TRUTH,Were you in the Volleyball CCA during secondary school?,0.398148148148148,2.5507258464349434,4.36596926464699,45,31,14,90,37,39,76,0.36074074074074103,0.75130691069389,-0.775236333122807,69,6,48,2.5,2.5,1.8,2.14285714285714,2.6,2.0,3.0,3.3333333333333304,2.48452380952381,-3.1,-7.7,4.975,10.0,Female,20,Right handed,Junior College,Chinese,Not religious,Singaporean,Yes,Social,102.17160902730498,-2.158391288932279
1,29,Social,1,0,27,Direct,LIE,How frequently do you drink alcohol?,0.337037037037037,2.9829169751610607,2.9000839859945695,45,31,14,90,37,39,76,0.36074074074074103,0.75130691069389,-0.775236333122807,69,6,48,2.5,2.5,1.8,2.14285714285714,2.6,2.0,3.0,3.3333333333333304,2.48452380952381,-3.1,-7.7,4.975,10.0,Female,20,Right handed,Junior College,Chinese,Not religious,Singaporean,Yes,Social,95.13465769361588,2.8854972896864837
1,30,Social,1,1,15,Indirect,LIE,Are you from Hwa Chong Institution (College)?,0.425,2.7493221454788,3.1331029761349796,45,31,14,90,37,39,76,0.36074074074074103,0.75130691069389,-0.775236333122807,69,6,48,2.5,2.5,1.8,2.14285714285714,2.6,2.0,3.0,3.3333333333333304,2.48452380952381,-3.1,-7.7,4.975,10.0,Female,20,Right handed,Junior College,Chinese,Not religious,Singaporean,Yes,Social,101.41953521592393,0.1072081999389809
1,31,Social,1,1,17,Direct,TRUTH,Where did you celebrate your 21st birthday?,0.385185185185185,3.9662163462489843,3.49973630078603,45,31,14,90,37,39,76,0.36074074074074103,0.75130691069389,-0.775236333122807,69,6,48,2.5,2.5,1.8,2.14285714285714,2.6,2.0,3.0,3.3333333333333304,2.48452380952381,-3.1,-7.7,4.975,10.0,Female,20,Right handed,Junior College,Chinese,Not religious,Singaporean,Yes,Social,95.62693581165671,2.379711215911513
1,32,Social,1,1,21,Indirect,TRUTH,Are you from the School of Humanities in NTU?,0.385185185185185,2.0015953481197357,3.89967368019279,45,31,14,90,37,39,76,0.36074074074074103,0.75130691069389,-0.775236333122807,69,6,48,2.5,2.5,1.8,2.14285714285714,2.6,2.0,3.0,3.3333333333333304,2.48452380952381,-3.1,-7.7,4.975,10.0,Female,20,Right handed,Junior College,Chinese,Not religious,Singaporean,Yes,Social,108.1196213600424,-0.013474539607187808
1,33,Social,1,1,28,Direct,LIE,What religion do you practice?,0.49259259259259297,1.9817470104899257,2.6997829454485296,45,31,14,90,37,39,76,0.36074074074074103,0.75130691069389,-0.775236333122807,69,6,48,2.5,2.5,1.8,2.14285714285714,2.6,2.0,3.0,3.3333333333333304,2.48452380952381,-3.1,-7.7,4.975,10.0,Female,20,Right handed,Junior College,Chinese,Not religious,Singaporean,Yes,Social,96.84733252516493,1.1538924836752074
1,34,Social,1,1,28,Direct,TRUTH,What religion do you practice?,0.526851851851852,1.8986785525921732,2.3333392146742002,45,31,14,90,37,39,76,0.36074074074074103,0.75130691069389,-0.775236333122807,69,6,48,2.5,2.5,1.8,2.14285714285714,2.6,2.0,3.0,3.3333333333333304,2.48452380952381,-3.1,-7.7,4.975,10.0,Female,20,Right handed,Junior College,Chinese,Not religious,Singaporean,Yes,Social,102.96466172559468,-0.4864026872647145
1,35,Social,1,1,1,Indirect,TRUTH,Are you from Tao Nan Primary School?,0.49074074074074103,2.3158599995076656,3.20006075990386,45,31,14,90,37,39,76,0.36074074074074103,0.75130691069389,-0.775236333122807,69,6,48,2.5,2.5,1.8,2.14285714285714,2.6,2.0,3.0,3.3333333333333304,2.48452380952381,-3.1,-7.7,4.975,10.0,Female,20,Right handed,Junior College,Chinese,Not religious,Singaporean,Yes,Social,102.82549960153948,2.4956548942703307
1,36,Social,1,1,6,Indirect,LIE,Were you in the Infocomm Club CCA during secondary school?,0.332407407407407,2.7001419228035957,3.6659646451007597,45,31,14,90,37,39,76,0.36074074074074103,0.75130691069389,-0.775236333122807,69,6,48,2.5,2.5,1.8,2.14285714285714,2.6,2.0,3.0,3.3333333333333304,2.48452380952381,-3.1,-7.7,4.975,10.0,Female,20,Right handed,Junior College,Chinese,Not religious,Singaporean,Yes,Social,103.86258604517286,0.4757005183103047
1,37,Social,1,1,18,Indirect,LIE,Was the last country you visited Malaysia?,0.48888888888888893,2.033594701322727,3.86642384098377,45,31,14,90,37,39,76,0.36074074074074103,0.75130691069389,-0.775236333122807,69,6,48,2.5,2.5,1.8,2.14285714285714,2.6,2.0,3.0,3.3333333333333304,2.48452380952381,-3.1,-7.7,4.975,10.0,Female,20,Right handed,Junior College,Chinese,Not religious,Singaporean,Yes,Social,100.70377515661272,0.5641411322889098
1,38,Social,1,1,16,Indirect,LIE,Do you have 4 siblings?,0.45740740740740704,5.133766394574195,2.59975785878487,45,31,14,90,37,39,76,0.36074074074074103,0.75130691069389,-0.775236333122807,69,6,48,2.5,2.5,1.8,2.14285714285714,2.6,2.0,3.0,3.3333333333333304,2.48452380952381,-3.1,-7.7,4.975,10.0,Female,20,Right handed,Junior College,Chinese,Not religious,Singaporean,Yes,Social,105.05769511187057,-0.26696788942619776
1,39,Social,1,1,29,Direct,LIE,What brand of handphone do you use?,0.35462962962963,3.1340660236310214,2.7998593604425,45,31,14,90,37,39,76,0.36074074074074103,0.75130691069389,-0.775236333122807,69,6,48,2.5,2.5,1.8,2.14285714285714,2.6,2.0,3.0,3.3333333333333304,2.48452380952381,-3.1,-7.7,4.975,10.0,Female,20,Right handed,Junior College,Chinese,Not religious,Singaporean,Yes,Social,108.15624655650566,0.7181389256214601
1,40,Social,1,1,15,Indirect,TRUTH,Are you from Singapore Polytechnic?,0.5175925925925929,2.6830303465249017,3.26682702486869,45,31,14,90,37,39,76,0.36074074074074103,0.75130691069389,-0.775236333122807,69,6,48,2.5,2.5,1.8,2.14285714285714,2.6,2.0,3.0,3.3333333333333304,2.48452380952381,-3.1,-7.7,4.975,10.0,Female,20,Right handed,Junior College,Chinese,Not religious,Singaporean,Yes,Social,94.24316985617841,1.507466610428807
1,41,Polygraph,1,1,30,Direct,LIE,What brand of laptop do you mainly use?,0.49537037037037,3.001239899545908,4.066220901673661,45,31,14,90,37,39,76,0.36074074074074103,0.75130691069389,-0.775236333122807,69,6,48,2.5,2.5,1.8,2.14285714285714,2.6,2.0,3.0,3.3333333333333304,2.48452380952381,-3.1,-7.7,4.975,10.0,Female,20,Right handed,Junior College,Chinese,Not religious,Singaporean,Yes,Polygraph,94.62092508994012,-5.246938629856118
1,42,Polygraph,1,1,18,Indirect,TRUTH,Was the last country you visited Australia?,0.323148148148148,2.0324317943304777,4.19954138144385,45,31,14,90,37,39,76,0.36074074074074103,0.75130691069389,-0.775236333122807,69,6,48,2.5,2.5,1.8,2.14285714285714,2.6,2.0,3.0,3.3333333333333304,2.48452380952381,-3.1,-7.7,4.975,10.0,Female,20,Right handed,Junior College,Chinese,Not religious,Singaporean,Yes,Polygraph,103.86829479405979,1.358735076139098
1,43,Polygraph,1,1,7,Direct,LIE,What is your favourite sport?,0.349074074074074,2.5994142798008397,3.49967246130109,45,31,14,90,37,39,76,0.36074074074074103,0.75130691069389,-0.775236333122807,69,6,48,2.5,2.5,1.8,2.14285714285714,2.6,2.0,3.0,3.3333333333333304,2.48452380952381,-3.1,-7.7,4.975,10.0,Female,20,Right handed,Junior College,Chinese,Not religious,Singaporean,Yes,Polygraph,93.05607526818929,-0.2825390203364293
1,44,Polygraph,1,1,1,Direct,TRUTH,Which primary school are you from?,0.498148148148148,2.217066150624305,3.08302386640571,45,31,14,90,37,39,76,0.36074074074074103,0.75130691069389,-0.775236333122807,69,6,48,2.5,2.5,1.8,2.14285714285714,2.6,2.0,3.0,3.3333333333333304,2.48452380952381,-3.1,-7.7,4.975,10.0,Female,20,Right handed,Junior College,Chinese,Not religious,Singaporean,Yes,Polygraph,90.49308465608914,-0.6637743468258606
1,45,Polygraph,1,1,23,Direct,TRUTH,What course are you studying?,0.48611111111111105,2.4001378807006404,4.46619100298267,45,31,14,90,37,39,76,0.36074074074074103,0.75130691069389,-0.775236333122807,69,6,48,2.5,2.5,1.8,2.14285714285714,2.6,2.0,3.0,3.3333333333333304,2.48452380952381,-3.1,-7.7,4.975,10.0,Female,20,Right handed,Junior College,Chinese,Not religious,Singaporean,Yes,Polygraph,97.46783634282956,1.3046728532517164
1,46,Polygraph,1,1,7,Indirect,TRUTH,Is your favourite sport Kayaking?,0.38148148148148103,7.3667773647466674,3.3329196057747996,45,31,14,90,37,39,76,0.36074074074074103,0.75130691069389,-0.775236333122807,69,6,48,2.5,2.5,1.8,2.14285714285714,2.6,2.0,3.0,3.3333333333333304,2.48452380952381,-3.1,-7.7,4.975,10.0,Female,20,Right handed,Junior College,Chinese,Not religious,Singaporean,Yes,Polygraph,96.45288604913421,1.411542839722074
1,47,Polygraph,1,1,2,Indirect,TRUTH,Are you from Serangoon Secondary School?,0.6898148148148149,8.182355700060725,4.21630264190026,45,31,14,90,37,39,76,0.36074074074074103,0.75130691069389,-0.775236333122807,69,6,48,2.5,2.5,1.8,2.14285714285714,2.6,2.0,3.0,3.3333333333333304,2.48452380952381,-3.1,-7.7,4.975,10.0,Female,20,Right handed,Junior College,Chinese,Not religious,Singaporean,Yes,Polygraph,94.67182065591378,0.8464622928351133
1,48,Polygraph,1,1,27,Indirect,LIE,Do you drink alcohol rarely?,0.41203703703703703,3.7680191249819472,3.8332965479930894,45,31,14,90,37,39,76,0.36074074074074103,0.75130691069389,-0.775236333122807,69,6,48,2.5,2.5,1.8,2.14285714285714,2.6,2.0,3.0,3.3333333333333304,2.48452380952381,-3.1,-7.7,4.975,10.0,Female,20,Right handed,Junior College,Chinese,Not religious,Singaporean,Yes,Polygraph,94.04116883141242,1.18622345146143
1,49,Polygraph,1,1,23,Indirect,LIE,Are you studying Sociology course in NTU?,0.337037037037037,2.551960292388685,4.13312222424429,45,31,14,90,37,39,76,0.36074074074074103,0.75130691069389,-0.775236333122807,69,6,48,2.5,2.5,1.8,2.14285714285714,2.6,2.0,3.0,3.3333333333333304,2.48452380952381,-3.1,-7.7,4.975,10.0,Female,20,Right handed,Junior College,Chinese,Not religious,Singaporean,Yes,Polygraph,95.92659525525718,0.9594136402152031
1,50,Polygraph,1,1,19,Indirect,LIE,Is the Canberra station the closest MRT to your house?,0.37037037037037,1.9001093292608857,4.71634113823529,45,31,14,90,37,39,76,0.36074074074074103,0.75130691069389,-0.775236333122807,69,6,48,2.5,2.5,1.8,2.14285714285714,2.6,2.0,3.0,3.3333333333333304,2.48452380952381,-3.1,-7.7,4.975,10.0,Female,20,Right handed,Junior College,Chinese,Not religious,Singaporean,Yes,Polygraph,97.42093418969243,0.27396669674627105
1,51,Polygraph,1,1,30,Direct,TRUTH,What brand of laptop do you mainly use?,0.5194444444444439,1.430953795555979,3.66639836935792,45,31,14,90,37,39,76,0.36074074074074103,0.75130691069389,-0.775236333122807,69,6,48,2.5,2.5,1.8,2.14285714285714,2.6,2.0,3.0,3.3333333333333304,2.48452380952381,-3.1,-7.7,4.975,10.0,Female,20,Right handed,Junior College,Chinese,Not religious,Singaporean,Yes,Polygraph,101.29410780152955,1.7315955705024066
1,52,Polygraph,1,1,22,Direct,TRUTH,"Which year in NTU are you currently in? (Eg. 1, 2, 3, 4)",0.503703703703704,2.252473062253557,3.2830509420018603,45,31,14,90,37,39,76,0.36074074074074103,0.75130691069389,-0.775236333122807,69,6,48,2.5,2.5,1.8,2.14285714285714,2.6,2.0,3.0,3.3333333333333304,2.48452380952381,-3.1,-7.7,4.975,10.0,Female,20,Right handed,Junior College,Chinese,Not religious,Singaporean,Yes,Polygraph,89.60694621933368,1.5072626484280676
1,53,Polygraph,0,0,21,Direct,LIE,"Which school in NTU are you from? (Eg. NBS, SSS, SOH)",0.33055555555555605,2.3834468758432195,3.59949159296229,45,31,14,90,37,39,76,0.36074074074074103,0.75130691069389,-0.775236333122807,69,6,48,2.5,2.5,1.8,2.14285714285714,2.6,2.0,3.0,3.3333333333333304,2.48452380952381,-3.1,-7.7,4.975,10.0,Female,20,Right handed,Junior College,Chinese,Not religious,Singaporean,Yes,Polygraph,98.91222838238897,-0.9037384549184395
1,54,Polygraph,1,1,6,Direct,LIE,What CCA (Co-curricular Activity) did you join in secondary school?,0.5,2.5678431971464306,4.36659097881056,45,31,14,90,37,39,76,0.36074074074074103,0.75130691069389,-0.775236333122807,69,6,48,2.5,2.5,1.8,2.14285714285714,2.6,2.0,3.0,3.3333333333333304,2.48452380952381,-3.1,-7.7,4.975,10.0,Female,20,Right handed,Junior College,Chinese,Not religious,Singaporean,Yes,Polygraph,94.08424120643058,0.7599708883033855
1,55,Polygraph,1,1,26,Direct,TRUTH,How often do you smoke?,0.8398148148148149,6.18267938925419,2.6996427548583597,45,31,14,90,37,39,76,0.36074074074074103,0.75130691069389,-0.775236333122807,69,6,48,2.5,2.5,1.8,2.14285714285714,2.6,2.0,3.0,3.3333333333333304,2.48452380952381,-3.1,-7.7,4.975,10.0,Female,20,Right handed,Junior College,Chinese,Not religious,Singaporean,Yes,Polygraph,92.41765857960478,0.14776880683055538
1,56,Polygraph,1,1,10,Indirect,TRUTH,Do you hate eating cheese the most?,0.769444444444444,4.3333129088860005,4.1825401611859,45,31,14,90,37,39,76,0.36074074074074103,0.75130691069389,-0.775236333122807,69,6,48,2.5,2.5,1.8,2.14285714285714,2.6,2.0,3.0,3.3333333333333304,2.48452380952381,-3.1,-7.7,4.975,10.0,Female,20,Right handed,Junior College,Chinese,Not religious,Singaporean,Yes,Polygraph,104.1829909119913,-0.7260276643937544
1,57,Polygraph,1,1,14,Direct,LIE,"What is your favourite flavour?(E.g. chocolate, vanilla, milktea; it can be a complicated flavour)",0.5185185185185179,2.6335928407497704,4.532735914574,45,31,14,90,37,39,76,0.36074074074074103,0.75130691069389,-0.775236333122807,69,6,48,2.5,2.5,1.8,2.14285714285714,2.6,2.0,3.0,3.3333333333333304,2.48452380952381,-3.1,-7.7,4.975,10.0,Female,20,Right handed,Junior College,Chinese,Not religious,Singaporean,Yes,Polygraph,96.23770914333402,1.576094870309845
1,58,Polygraph,1,1,28,Indirect,LIE,Is your religion Catholicism?,0.400925925925926,2.7003575016278774,4.29958186671138,45,31,14,90,37,39,76,0.36074074074074103,0.75130691069389,-0.775236333122807,69,6,48,2.5,2.5,1.8,2.14285714285714,2.6,2.0,3.0,3.3333333333333304,2.48452380952381,-3.1,-7.7,4.975,10.0,Female,20,Right handed,Junior College,Chinese,Not religious,Singaporean,Yes,Polygraph,100.38815168217165,1.692666501605899
1,59,Polygraph,1,1,16,Direct,TRUTH,"How many siblings do you have? (Eg. 0, 1, 2, 3)",0.7907407407407409,3.186288411146961,3.3332092898199304,45,31,14,90,37,39,76,0.36074074074074103,0.75130691069389,-0.775236333122807,69,6,48,2.5,2.5,1.8,2.14285714285714,2.6,2.0,3.0,3.3333333333333304,2.48452380952381,-3.1,-7.7,4.975,10.0,Female,20,Right handed,Junior College,Chinese,Not religious,Singaporean,Yes,Polygraph,93.47471219267406,-0.9167724352858926
1,60,Polygraph,1,1,16,Direct,LIE,"How many siblings do you have? (Eg. 0, 1, 2, 3)",0.3666666666666671,2.9161064395448193,4.59950667072553,45,31,14,90,37,39,76,0.36074074074074103,0.75130691069389,-0.775236333122807,69,6,48,2.5,2.5,1.8,2.14285714285714,2.6,2.0,3.0,3.3333333333333304,2.48452380952381,-3.1,-7.7,4.975,10.0,Female,20,Right handed,Junior College,Chinese,Not religious,Singaporean,Yes,Polygraph,99.8549011251805,-0.7987729256941805
1,61,Polygraph,1,1,26,Indirect,LIE,Do you not smoke at all?,0.35370370370370396,3.3670667280675843,3.26671955618076,45,31,14,90,37,39,76,0.36074074074074103,0.75130691069389,-0.775236333122807,69,6,48,2.5,2.5,1.8,2.14285714285714,2.6,2.0,3.0,3.3333333333333304,2.48452380952381,-3.1,-7.7,4.975,10.0,Female,20,Right handed,Junior College,Chinese,Not religious,Singaporean,Yes,Polygraph,94.97541207283305,-0.5657647168419118
1,62,Polygraph,1,1,6,Direct,TRUTH,What CCA (Co-curricular Activity) did you join in secondary school?,0.54537037037037,2.668140965513885,5.9659555342514095,45,31,14,90,37,39,76,0.36074074074074103,0.75130691069389,-0.775236333122807,69,6,48,2.5,2.5,1.8,2.14285714285714,2.6,2.0,3.0,3.3333333333333304,2.48452380952381,-3.1,-7.7,4.975,10.0,Female,20,Right handed,Junior College,Chinese,Not religious,Singaporean,Yes,Polygraph,107.0848643197847,0.7369557659512225
1,63,Polygraph,1,1,22,Direct,LIE,"Which year in NTU are you currently in? (Eg. 1, 2, 3, 4)",0.47777777777777797,1.7811816290486604,3.9999935840023704,45,31,14,90,37,39,76,0.36074074074074103,0.75130691069389,-0.775236333122807,69,6,48,2.5,2.5,1.8,2.14285714285714,2.6,2.0,3.0,3.3333333333333304,2.48452380952381,-3.1,-7.7,4.975,10.0,Female,20,Right handed,Junior College,Chinese,Not religious,Singaporean,Yes,Polygraph,94.58508969741537,-0.012446769125304513
1,64,Polygraph,1,1,20,Direct,LIE,Which floor of the building is your house on?,0.35648148148148207,2.9829570753499866,4.99999743350782,45,31,14,90,37,39,76,0.36074074074074103,0.75130691069389,-0.775236333122807,69,6,48,2.5,2.5,1.8,2.14285714285714,2.6,2.0,3.0,3.3333333333333304,2.48452380952381,-3.1,-7.7,4.975,10.0,Female,20,Right handed,Junior College,Chinese,Not religious,Singaporean,Yes,Polygraph,99.36643852866631,1.4040630927144235
1,65,Polygraph,1,1,29,Indirect,LIE,Do you use a Samsung phone?,0.30277777777777803,2.566338635981083,3.34975272591691,45,31,14,90,37,39,76,0.36074074074074103,0.75130691069389,-0.775236333122807,69,6,48,2.5,2.5,1.8,2.14285714285714,2.6,2.0,3.0,3.3333333333333304,2.48452380952381,-3.1,-7.7,4.975,10.0,Female,20,Right handed,Junior College,Chinese,Not religious,Singaporean,Yes,Polygraph,102.68829982244002,2.8839011696553314
1,66,Polygraph,0,0,27,Direct,TRUTH,How frequently do you drink alcohol?,0.550925925925926,3.2661738720489666,3.4328199004521602,45,31,14,90,37,39,76,0.36074074074074103,0.75130691069389,-0.775236333122807,69,6,48,2.5,2.5,1.8,2.14285714285714,2.6,2.0,3.0,3.3333333333333304,2.48452380952381,-3.1,-7.7,4.975,10.0,Female,20,Right handed,Junior College,Chinese,Not religious,Singaporean,Yes,Polygraph,98.4878543438826,1.3158968006200809
1,67,Polygraph,1,1,20,Indirect,TRUTH,Is your house on the 12th floor of the building?,0.656481481481481,2.434086105786264,4.266122222994451,45,31,14,90,37,39,76,0.36074074074074103,0.75130691069389,-0.775236333122807,69,6,48,2.5,2.5,1.8,2.14285714285714,2.6,2.0,3.0,3.3333333333333304,2.48452380952381,-3.1,-7.7,4.975,10.0,Female,20,Right handed,Junior College,Chinese,Not religious,Singaporean,Yes,Polygraph,95.95090297115182,-2.6473738114121232
1,68,Polygraph,1,1,2,Indirect,LIE,Are you from Nanyang Girls' High School?,0.537037037037037,2.4844407845521346,3.8167556785047103,45,31,14,90,37,39,76,0.36074074074074103,0.75130691069389,-0.775236333122807,69,6,48,2.5,2.5,1.8,2.14285714285714,2.6,2.0,3.0,3.3333333333333304,2.48452380952381,-3.1,-7.7,4.975,10.0,Female,20,Right handed,Junior College,Chinese,Not religious,Singaporean,Yes,Polygraph,102.34253830728609,-1.100689241110004
1,69,Polygraph,1,1,15,Direct,TRUTH,Which polytechnic or junior college are you from?,0.7018518518518521,2.749000701936893,3.54997035779525,45,31,14,90,37,39,76,0.36074074074074103,0.75130691069389,-0.775236333122807,69,6,48,2.5,2.5,1.8,2.14285714285714,2.6,2.0,3.0,3.3333333333333304,2.48452380952381,-3.1,-7.7,4.975,10.0,Female,20,Right handed,Junior College,Chinese,Not religious,Singaporean,Yes,Polygraph,94.88315642729579,2.002829348788225
1,70,Polygraph,1,1,28,Indirect,TRUTH,Is your religion a free-thinker?,0.6759259259259259,2.533170280396007,3.6334035674808502,45,31,14,90,37,39,76,0.36074074074074103,0.75130691069389,-0.775236333122807,69,6,48,2.5,2.5,1.8,2.14285714285714,2.6,2.0,3.0,3.3333333333333304,2.48452380952381,-3.1,-7.7,4.975,10.0,Female,20,Right handed,Junior College,Chinese,Not religious,Singaporean,Yes,Polygraph,93.42164050700215,-0.14266039721765367
1,71,Polygraph,1,1,10,Direct,LIE,What food do you hate the most?,0.6898148148148149,3.933612602064386,3.64950012636837,45,31,14,90,37,39,76,0.36074074074074103,0.75130691069389,-0.775236333122807,69,6,48,2.5,2.5,1.8,2.14285714285714,2.6,2.0,3.0,3.3333333333333304,2.48452380952381,-3.1,-7.7,4.975,10.0,Female,20,Right handed,Junior College,Chinese,Not religious,Singaporean,Yes,Polygraph,95.66951133760709,-0.7547275931037518
1,72,Polygraph,1,1,17,Direct,LIE,Where did you celebrate your 21st birthday?,0.27037037037037,4.53323411999736,5.516276207868941,45,31,14,90,37,39,76,0.36074074074074103,0.75130691069389,-0.775236333122807,69,6,48,2.5,2.5,1.8,2.14285714285714,2.6,2.0,3.0,3.3333333333333304,2.48452380952381,-3.1,-7.7,4.975,10.0,Female,20,Right handed,Junior College,Chinese,Not religious,Singaporean,Yes,Polygraph,94.48190807522403,1.8457430048417223
1,73,Polygraph,1,1,19,Indirect,TRUTH,Is the Bedok station the closest MRT to your house?,0.672222222222222,2.0341580295935273,4.71647266694345,45,31,14,90,37,39,76,0.36074074074074103,0.75130691069389,-0.775236333122807,69,6,48,2.5,2.5,1.8,2.14285714285714,2.6,2.0,3.0,3.3333333333333304,2.48452380952381,-3.1,-7.7,4.975,10.0,Female,20,Right handed,Junior College,Chinese,Not religious,Singaporean,Yes,Polygraph,98.64323368982674,-3.170418032381562
1,74,Polygraph,1,1,29,Indirect,TRUTH,Do you use a Xiaomi phone?,0.6898148148148149,2.5672920594224706,4.01620723551605,45,31,14,90,37,39,76,0.36074074074074103,0.75130691069389,-0.775236333122807,69,6,48,2.5,2.5,1.8,2.14285714285714,2.6,2.0,3.0,3.3333333333333304,2.48452380952381,-3.1,-7.7,4.975,10.0,Female,20,Right handed,Junior College,Chinese,Not religious,Singaporean,Yes,Polygraph,92.71456154497699,1.7215161163402826
1,75,Polygraph,1,1,14,Indirect,TRUTH,Is your favourite flavour Chocolate?,0.705555555555555,1.9648022511973977,4.466264787362889,45,31,14,90,37,39,76,0.36074074074074103,0.75130691069389,-0.775236333122807,69,6,48,2.5,2.5,1.8,2.14285714285714,2.6,2.0,3.0,3.3333333333333304,2.48452380952381,-3.1,-7.7,4.975,10.0,Female,20,Right handed,Junior College,Chinese,Not religious,Singaporean,Yes,Polygraph,90.55347453854259,0.5005131350293937
1,76,Polygraph,1,1,15,Direct,LIE,Which polytechnic or junior college are you from?,0.538888888888889,2.6670627500861883,3.3662101869704197,45,31,14,90,37,39,76,0.36074074074074103,0.75130691069389,-0.775236333122807,69,6,48,2.5,2.5,1.8,2.14285714285714,2.6,2.0,3.0,3.3333333333333304,2.48452380952381,-3.1,-7.7,4.975,10.0,Female,20,Right handed,Junior College,Chinese,Not religious,Singaporean,Yes,Polygraph,93.3243622272289,3.4923854182248277
1,77,Polygraph,1,1,17,Indirect,TRUTH,Did you not celebrate your 21st birthday?,0.42685185185185204,4.716262541827746,4.83317656803411,45,31,14,90,37,39,76,0.36074074074074103,0.75130691069389,-0.775236333122807,69,6,48,2.5,2.5,1.8,2.14285714285714,2.6,2.0,3.0,3.3333333333333304,2.48452380952381,-3.1,-7.7,4.975,10.0,Female,20,Right handed,Junior College,Chinese,Not religious,Singaporean,Yes,Polygraph,93.35467817034967,1.6547450720585033
1,78,Polygraph,1,1,18,Direct,LIE,What was the last country you visited?,0.6861111111111109,3.150607213960029,4.04951578145847,45,31,14,90,37,39,76,0.36074074074074103,0.75130691069389,-0.775236333122807,69,6,48,2.5,2.5,1.8,2.14285714285714,2.6,2.0,3.0,3.3333333333333304,2.48452380952381,-3.1,-7.7,4.975,10.0,Female,20,Right handed,Junior College,Chinese,Not religious,Singaporean,Yes,Polygraph,101.17117944445435,-0.048569578082307885
1,79,Polygraph,1,1,21,Direct,TRUTH,"Which school in NTU are you from? (Eg. NBS, SSS, SOH)",0.637962962962963,0.9485536323627457,4.09979058045428,45,31,14,90,37,39,76,0.36074074074074103,0.75130691069389,-0.775236333122807,69,6,48,2.5,2.5,1.8,2.14285714285714,2.6,2.0,3.0,3.3333333333333304,2.48452380952381,-3.1,-7.7,4.975,10.0,Female,20,Right handed,Junior College,Chinese,Not religious,Singaporean,Yes,Polygraph,93.04708851893969,2.103577317719015
1,80,Polygraph,1,1,1,Direct,LIE,Which primary school are you from?,0.351851851851852,3.6827599104726687,4.28302976908162,45,31,14,90,37,39,76,0.36074074074074103,0.75130691069389,-0.775236333122807,69,6,48,2.5,2.5,1.8,2.14285714285714,2.6,2.0,3.0,3.3333333333333304,2.48452380952381,-3.1,-7.7,4.975,10.0,Female,20,Right handed,Junior College,Chinese,Not religious,Singaporean,Yes,Polygraph,93.98092402275219,2.4821518097152193
2,1,Social,1,0,6,Indirect,LIE,Were you in the Swimming CCA during secondary school?,0.525925925925926,7.802066477946937,6.3152106963098005,44,34,12,90,36,33,69,0.170740740740741,0.657568185846362,0.8024574349711301,46,24,18,3.25,0.166666666666667,3.8,1.28571428571429,4.2,2.0,0.33333333333333304,4.0,2.37946428571429,-6.75,-0.525,2.8,1.65,Female,20,Right handed,Polytechnic,Chinese,Buddhism,Singaporean,Yes,Social,100.31304060437607,-4.1927239715267035
2,2,Social,1,1,21,Indirect,TRUTH,Are you from School of Humanities in NTU?,0.996296296296296,7.269354944117367,7.69876504084095,44,34,12,90,36,33,69,0.170740740740741,0.657568185846362,0.8024574349711301,46,24,18,3.25,0.166666666666667,3.8,1.28571428571429,4.2,2.0,0.33333333333333304,4.0,2.37946428571429,-6.75,-0.525,2.8,1.65,Female,20,Right handed,Polytechnic,Chinese,Buddhism,Singaporean,Yes,Social,94.79188456315245,2.6012730678922367
2,3,Social,1,1,29,Direct,TRUTH,What brand of handphone do you use?,0.996296296296296,3.616894778329879,5.26606415770948,44,34,12,90,36,33,69,0.170740740740741,0.657568185846362,0.8024574349711301,46,24,18,3.25,0.166666666666667,3.8,1.28571428571429,4.2,2.0,0.33333333333333304,4.0,2.37946428571429,-6.75,-0.525,2.8,1.65,Female,20,Right handed,Polytechnic,Chinese,Buddhism,Singaporean,Yes,Social,95.00590363333484,3.7962396495682214
2,4,Social,1,1,22,Direct,LIE,"Which year in NTU are you currently in? (Eg. 1, 2, 3, 4)",0.0,8.766320478636771,5.1998317071702305,44,34,12,90,36,33,69,0.170740740740741,0.657568185846362,0.8024574349711301,46,24,18,3.25,0.166666666666667,3.8,1.28571428571429,4.2,2.0,0.33333333333333304,4.0,2.37946428571429,-6.75,-0.525,2.8,1.65,Female,20,Right handed,Polytechnic,Chinese,Buddhism,Singaporean,Yes,Social,95.85224447315575,2.4523591337774917
2,5,Social,1,1,5,Direct,LIE,What is your favourite country you visited? ,0.218518518518519,4.799962658667937,5.699597201077269,44,34,12,90,36,33,69,0.170740740740741,0.657568185846362,0.8024574349711301,46,24,18,3.25,0.166666666666667,3.8,1.28571428571429,4.2,2.0,0.33333333333333304,4.0,2.37946428571429,-6.75,-0.525,2.8,1.65,Female,20,Right handed,Polytechnic,Chinese,Buddhism,Singaporean,Yes,Social,91.96966591041918,-1.9797510612431921
2,6,Social,1,1,7,Indirect,TRUTH,Is your favourite sport Netball?,0.860185185185185,3.0993507609236985,7.648875525221231,44,34,12,90,36,33,69,0.170740740740741,0.657568185846362,0.8024574349711301,46,24,18,3.25,0.166666666666667,3.8,1.28571428571429,4.2,2.0,0.33333333333333304,4.0,2.37946428571429,-6.75,-0.525,2.8,1.65,Female,20,Right handed,Polytechnic,Chinese,Buddhism,Singaporean,Yes,Social,92.9257997633199,2.2005635026522867
2,7,Social,1,1,30,Direct,TRUTH,What brand of laptop do you mainly use?,0.999074074074074,2.2504388571251184,4.23286404297687,44,34,12,90,36,33,69,0.170740740740741,0.657568185846362,0.8024574349711301,46,24,18,3.25,0.166666666666667,3.8,1.28571428571429,4.2,2.0,0.33333333333333304,4.0,2.37946428571429,-6.75,-0.525,2.8,1.65,Female,20,Right handed,Polytechnic,Chinese,Buddhism,Singaporean,Yes,Social,85.19456001102608,-0.5679867742561413
2,8,Social,1,1,15,Indirect,LIE,Are you from National Junior College?,0.16018518518518501,4.683856090996414,5.3828379937913295,44,34,12,90,36,33,69,0.170740740740741,0.657568185846362,0.8024574349711301,46,24,18,3.25,0.166666666666667,3.8,1.28571428571429,4.2,2.0,0.33333333333333304,4.0,2.37946428571429,-6.75,-0.525,2.8,1.65,Female,20,Right handed,Polytechnic,Chinese,Buddhism,Singaporean,Yes,Social,91.40932666446125,-2.085526465970929
2,9,Social,1,1,10,Direct,TRUTH,What food do you hate the most?,0.900925925925926,3.9500896320678294,6.23311073938385,44,34,12,90,36,33,69,0.170740740740741,0.657568185846362,0.8024574349711301,46,24,18,3.25,0.166666666666667,3.8,1.28571428571429,4.2,2.0,0.33333333333333304,4.0,2.37946428571429,-6.75,-0.525,2.8,1.65,Female,20,Right handed,Polytechnic,Chinese,Buddhism,Singaporean,Yes,Social,92.3260325139231,-1.6537512638004017
2,10,Social,0,0,23,Direct,LIE,What course are you studying?,0.48611111111111105,2.3499814574606717,2.1996231861412503,44,34,12,90,36,33,69,0.170740740740741,0.657568185846362,0.8024574349711301,46,24,18,3.25,0.166666666666667,3.8,1.28571428571429,4.2,2.0,0.33333333333333304,4.0,2.37946428571429,-6.75,-0.525,2.8,1.65,Female,20,Right handed,Polytechnic,Chinese,Buddhism,Singaporean,Yes,Social,83.68326408159847,4.387530911365019
2,11,Social,1,1,10,Direct,LIE,What food do you hate the most?,0.110185185185185,4.283879573456943,5.26632785703987,44,34,12,90,36,33,69,0.170740740740741,0.657568185846362,0.8024574349711301,46,24,18,3.25,0.166666666666667,3.8,1.28571428571429,4.2,2.0,0.33333333333333304,4.0,2.37946428571429,-6.75,-0.525,2.8,1.65,Female,20,Right handed,Polytechnic,Chinese,Buddhism,Singaporean,Yes,Social,89.68595848423608,0.33012660381407954
2,12,Social,1,1,30,Indirect,LIE,Do you use a Dell laptop?,0.0703703703703704,4.183841654798016,4.23288329108618,44,34,12,90,36,33,69,0.170740740740741,0.657568185846362,0.8024574349711301,46,24,18,3.25,0.166666666666667,3.8,1.28571428571429,4.2,2.0,0.33333333333333304,4.0,2.37946428571429,-6.75,-0.525,2.8,1.65,Female,20,Right handed,Polytechnic,Chinese,Buddhism,Singaporean,Yes,Social,92.08795444484524,-0.4361198893786593
2,13,Social,1,1,18,Direct,TRUTH,What was the last country you visited?,0.9259259259259259,2.433435519458726,4.66630277037621,44,34,12,90,36,33,69,0.170740740740741,0.657568185846362,0.8024574349711301,46,24,18,3.25,0.166666666666667,3.8,1.28571428571429,4.2,2.0,0.33333333333333304,4.0,2.37946428571429,-6.75,-0.525,2.8,1.65,Female,20,Right handed,Polytechnic,Chinese,Buddhism,Singaporean,Yes,Social,87.54035813680528,1.7411897734116337
2,14,Social,1,1,16,Direct,LIE,"How many siblings do you have? (Eg. 0, 1, 2, 3)",0.89537037037037,2.435641353717074,3.3997035147622205,44,34,12,90,36,33,69,0.170740740740741,0.657568185846362,0.8024574349711301,46,24,18,3.25,0.166666666666667,3.8,1.28571428571429,4.2,2.0,0.33333333333333304,4.0,2.37946428571429,-6.75,-0.525,2.8,1.65,Female,20,Right handed,Polytechnic,Chinese,Buddhism,Singaporean,Yes,Social,90.78841098710402,-2.355480787208279
2,15,Social,1,1,7,Direct,LIE,What is your favourite sport?,0.0833333333333333,2.300414989469573,5.03229673672467,44,34,12,90,36,33,69,0.170740740740741,0.657568185846362,0.8024574349711301,46,24,18,3.25,0.166666666666667,3.8,1.28571428571429,4.2,2.0,0.33333333333333304,4.0,2.37946428571429,-6.75,-0.525,2.8,1.65,Female,20,Right handed,Polytechnic,Chinese,Buddhism,Singaporean,Yes,Social,91.45857846513351,-2.124418966196785
2,16,Social,1,1,2,Direct,TRUTH,Which secondary school did you attend?,0.8972222222222221,1.8149595083668828,4.53305671666749,44,34,12,90,36,33,69,0.170740740740741,0.657568185846362,0.8024574349711301,46,24,18,3.25,0.166666666666667,3.8,1.28571428571429,4.2,2.0,0.33333333333333304,4.0,2.37946428571429,-6.75,-0.525,2.8,1.65,Female,20,Right handed,Polytechnic,Chinese,Buddhism,Singaporean,Yes,Social,90.98735305110856,2.5739875539811976
2,17,Social,1,1,19,Direct,TRUTH,Which MRT station is closest to your house?,0.8972222222222221,2.1654273017775267,5.66637045936659,44,34,12,90,36,33,69,0.170740740740741,0.657568185846362,0.8024574349711301,46,24,18,3.25,0.166666666666667,3.8,1.28571428571429,4.2,2.0,0.33333333333333304,4.0,2.37946428571429,-6.75,-0.525,2.8,1.65,Female,20,Right handed,Polytechnic,Chinese,Buddhism,Singaporean,Yes,Social,87.1420513473431,-0.8616985962233201
2,18,Social,1,1,27,Direct,TRUTH,How frequently do you drink alcohol?,0.9824074074074071,1.6484334599226713,3.6658206048887205,44,34,12,90,36,33,69,0.170740740740741,0.657568185846362,0.8024574349711301,46,24,18,3.25,0.166666666666667,3.8,1.28571428571429,4.2,2.0,0.33333333333333304,4.0,2.37946428571429,-6.75,-0.525,2.8,1.65,Female,20,Right handed,Polytechnic,Chinese,Buddhism,Singaporean,Yes,Social,89.97148648627204,0.8285602778174734
2,19,Social,1,1,27,Direct,LIE,How frequently do you drink alcohol?,0.00555555555555554,3.734977165237069,3.89993064268492,44,34,12,90,36,33,69,0.170740740740741,0.657568185846362,0.8024574349711301,46,24,18,3.25,0.166666666666667,3.8,1.28571428571429,4.2,2.0,0.33333333333333304,4.0,2.37946428571429,-6.75,-0.525,2.8,1.65,Female,20,Right handed,Polytechnic,Chinese,Buddhism,Singaporean,Yes,Social,89.78309984650393,0.520794428711767
2,20,Social,1,1,20,Indirect,LIE,Is your house on the 16 floor of the building?,0.0175925925925926,4.999445012770593,5.232053055427969,44,34,12,90,36,33,69,0.170740740740741,0.657568185846362,0.8024574349711301,46,24,18,3.25,0.166666666666667,3.8,1.28571428571429,4.2,2.0,0.33333333333333304,4.0,2.37946428571429,-6.75,-0.525,2.8,1.65,Female,20,Right handed,Polytechnic,Chinese,Buddhism,Singaporean,Yes,Social,91.1486541012622,4.472239836173898
2,21,Social,1,1,22,Direct,TRUTH,"Which year in NTU are you currently in? (Eg. 1, 2, 3, 4)",0.9861111111111109,4.66636532661505,4.4990902056451905,44,34,12,90,36,33,69,0.170740740740741,0.657568185846362,0.8024574349711301,46,24,18,3.25,0.166666666666667,3.8,1.28571428571429,4.2,2.0,0.33333333333333304,4.0,2.37946428571429,-6.75,-0.525,2.8,1.65,Female,20,Right handed,Polytechnic,Chinese,Buddhism,Singaporean,Yes,Social,85.66024661825675,3.652835877289334
2,22,Social,1,1,15,Indirect,TRUTH,Are you from Nanyang polytechnic?,0.9935185185185179,4.55098216724582,5.0665141146164405,44,34,12,90,36,33,69,0.170740740740741,0.657568185846362,0.8024574349711301,46,24,18,3.25,0.166666666666667,3.8,1.28571428571429,4.2,2.0,0.33333333333333304,4.0,2.37946428571429,-6.75,-0.525,2.8,1.65,Female,20,Right handed,Polytechnic,Chinese,Buddhism,Singaporean,Yes,Social,81.98821375518816,-3.4890852372091103
2,23,Social,1,1,5,Indirect,TRUTH,Is your favourite country Korea?,1.0,3.7660064133815467,5.3327774903737,44,34,12,90,36,33,69,0.170740740740741,0.657568185846362,0.8024574349711301,46,24,18,3.25,0.166666666666667,3.8,1.28571428571429,4.2,2.0,0.33333333333333304,4.0,2.37946428571429,-6.75,-0.525,2.8,1.65,Female,20,Right handed,Polytechnic,Chinese,Buddhism,Singaporean,Yes,Social,93.33456935666614,0.35547485012307334
2,24,Social,1,1,2,Direct,LIE,Which secondary school did you attend?,0.0574074074074074,1.8314391046296805,4.63269652007148,44,34,12,90,36,33,69,0.170740740740741,0.657568185846362,0.8024574349711301,46,24,18,3.25,0.166666666666667,3.8,1.28571428571429,4.2,2.0,0.33333333333333304,4.0,2.37946428571429,-6.75,-0.525,2.8,1.65,Female,20,Right handed,Polytechnic,Chinese,Buddhism,Singaporean,Yes,Social,92.50726610503686,-0.8708413923927765
2,25,Social,1,1,28,Direct,LIE,What religion do you practice?,0.0388888888888889,3.6703974863048643,3.66651032911614,44,34,12,90,36,33,69,0.170740740740741,0.657568185846362,0.8024574349711301,46,24,18,3.25,0.166666666666667,3.8,1.28571428571429,4.2,2.0,0.33333333333333304,4.0,2.37946428571429,-6.75,-0.525,2.8,1.65,Female,20,Right handed,Polytechnic,Chinese,Buddhism,Singaporean,Yes,Social,87.5407086650385,-1.9895006440928427
2,26,Social,1,1,1,Direct,TRUTH,Which primary school are you from?,0.9685185185185191,1.498731548897922,5.932726547122001,44,34,12,90,36,33,69,0.170740740740741,0.657568185846362,0.8024574349711301,46,24,18,3.25,0.166666666666667,3.8,1.28571428571429,4.2,2.0,0.33333333333333304,4.0,2.37946428571429,-6.75,-0.525,2.8,1.65,Female,20,Right handed,Polytechnic,Chinese,Buddhism,Singaporean,Yes,Social,87.21891202899398,0.28615847205117007
2,27,Social,1,1,13,Indirect,LIE,Is your dream job a Scientist when you were growing up?,0.0425925925925926,2.466888426337391,6.81618529255502,44,34,12,90,36,33,69,0.170740740740741,0.657568185846362,0.8024574349711301,46,24,18,3.25,0.166666666666667,3.8,1.28571428571429,4.2,2.0,0.33333333333333304,4.0,2.37946428571429,-6.75,-0.525,2.8,1.65,Female,20,Right handed,Polytechnic,Chinese,Buddhism,Singaporean,Yes,Social,89.40982149339443,1.9690031768897285
2,28,Social,1,1,1,Indirect,LIE,Are you from Edgefield Primary School?,0.000925925925925941,2.967091494007036,7.19955164729618,44,34,12,90,36,33,69,0.170740740740741,0.657568185846362,0.8024574349711301,46,24,18,3.25,0.166666666666667,3.8,1.28571428571429,4.2,2.0,0.33333333333333304,4.0,2.37946428571429,-6.75,-0.525,2.8,1.65,Female,20,Right handed,Polytechnic,Chinese,Buddhism,Singaporean,Yes,Social,92.69641927835721,3.550537810515351
2,29,Social,1,1,20,Indirect,TRUTH,Is your house on the 5 floor of the building?,0.962037037037037,1.0490291249006987,6.69951507588848,44,34,12,90,36,33,69,0.170740740740741,0.657568185846362,0.8024574349711301,46,24,18,3.25,0.166666666666667,3.8,1.28571428571429,4.2,2.0,0.33333333333333304,4.0,2.37946428571429,-6.75,-0.525,2.8,1.65,Female,20,Right handed,Polytechnic,Chinese,Buddhism,Singaporean,Yes,Social,81.89891784784196,-4.78123631149073
2,30,Social,1,1,28,Indirect,TRUTH,Is your religion Christianity?,0.962037037037037,2.035345317563042,5.832713330164549,44,34,12,90,36,33,69,0.170740740740741,0.657568185846362,0.8024574349711301,46,24,18,3.25,0.166666666666667,3.8,1.28571428571429,4.2,2.0,0.33333333333333304,4.0,2.37946428571429,-6.75,-0.525,2.8,1.65,Female,20,Right handed,Polytechnic,Chinese,Buddhism,Singaporean,Yes,Social,81.94640817308809,1.6049343417375752
2,31,Social,1,1,19,Indirect,LIE,Is the Cityhall station the closest MRT to your house?,0.05,2.267479536123574,5.99929295247421,44,34,12,90,36,33,69,0.170740740740741,0.657568185846362,0.8024574349711301,46,24,18,3.25,0.166666666666667,3.8,1.28571428571429,4.2,2.0,0.33333333333333304,4.0,2.37946428571429,-6.75,-0.525,2.8,1.65,Female,20,Right handed,Polytechnic,Chinese,Buddhism,Singaporean,Yes,Social,84.87946621989974,-0.5350242380067698
2,32,Social,1,1,18,Direct,LIE,What was the last country you visited?,0.05,2.0029818541370332,4.19960810849443,44,34,12,90,36,33,69,0.170740740740741,0.657568185846362,0.8024574349711301,46,24,18,3.25,0.166666666666667,3.8,1.28571428571429,4.2,2.0,0.33333333333333304,4.0,2.37946428571429,-6.75,-0.525,2.8,1.65,Female,20,Right handed,Polytechnic,Chinese,Buddhism,Singaporean,Yes,Social,91.18133697163474,1.1062095374976622
2,33,Social,1,1,21,Direct,LIE,"Which school in NTU are you from? (Eg. NBS, SSS, SOH)",0.05,1.2660044888034463,4.89978499850258,44,34,12,90,36,33,69,0.170740740740741,0.657568185846362,0.8024574349711301,46,24,18,3.25,0.166666666666667,3.8,1.28571428571429,4.2,2.0,0.33333333333333304,4.0,2.37946428571429,-6.75,-0.525,2.8,1.65,Female,20,Right handed,Polytechnic,Chinese,Buddhism,Singaporean,Yes,Social,94.50532691965334,2.5462280899904073
2,34,Social,1,0,23,Indirect,TRUTH,Are you studying Business course in NTU?,0.95462962962963,2.5176001575309783,7.23305395757779,44,34,12,90,36,33,69,0.170740740740741,0.657568185846362,0.8024574349711301,46,24,18,3.25,0.166666666666667,3.8,1.28571428571429,4.2,2.0,0.33333333333333304,4.0,2.37946428571429,-6.75,-0.525,2.8,1.65,Female,20,Right handed,Polytechnic,Chinese,Buddhism,Singaporean,Yes,Social,83.80058493341625,4.031695048830343
2,35,Social,1,1,3,Indirect,TRUTH,Is Yilin your closest friend back in secondary school?,0.958333333333333,2.033546581165865,5.96546214097179,44,34,12,90,36,33,69,0.170740740740741,0.657568185846362,0.8024574349711301,46,24,18,3.25,0.166666666666667,3.8,1.28571428571429,4.2,2.0,0.33333333333333304,4.0,2.37946428571429,-6.75,-0.525,2.8,1.65,Female,20,Right handed,Polytechnic,Chinese,Buddhism,Singaporean,Yes,Social,91.44011669212574,1.6435832026647148
2,36,Social,1,1,13,Direct,TRUTH,What is your dream job growing up?,0.9472222222222221,1.9498596170451492,6.165697737829761,44,34,12,90,36,33,69,0.170740740740741,0.657568185846362,0.8024574349711301,46,24,18,3.25,0.166666666666667,3.8,1.28571428571429,4.2,2.0,0.33333333333333304,4.0,2.37946428571429,-6.75,-0.525,2.8,1.65,Female,20,Right handed,Polytechnic,Chinese,Buddhism,Singaporean,Yes,Social,84.79667554366505,-2.4111343498960167
2,37,Social,1,1,29,Indirect,LIE,Do you use a Huawei phone?,0.0555555555555556,2.7834564356599003,3.83313743025064,44,34,12,90,36,33,69,0.170740740740741,0.657568185846362,0.8024574349711301,46,24,18,3.25,0.166666666666667,3.8,1.28571428571429,4.2,2.0,0.33333333333333304,4.0,2.37946428571429,-6.75,-0.525,2.8,1.65,Female,20,Right handed,Polytechnic,Chinese,Buddhism,Singaporean,Yes,Social,86.90198201386346,3.2290417178541446
2,38,Social,1,1,3,Direct,LIE,Who is your closest friend back in secondary school?,0.0620370370370371,6.665732063585892,6.2833101500291395,44,34,12,90,36,33,69,0.170740740740741,0.657568185846362,0.8024574349711301,46,24,18,3.25,0.166666666666667,3.8,1.28571428571429,4.2,2.0,0.33333333333333304,4.0,2.37946428571429,-6.75,-0.525,2.8,1.65,Female,20,Right handed,Polytechnic,Chinese,Buddhism,Singaporean,Yes,Social,89.51320737250214,4.579891484343122
2,39,Social,1,1,6,Indirect,TRUTH,Were you in the Taekwondo CCA during secondary school?,0.9611111111111109,2.5349472023081034,5.199558063177389,44,34,12,90,36,33,69,0.170740740740741,0.657568185846362,0.8024574349711301,46,24,18,3.25,0.166666666666667,3.8,1.28571428571429,4.2,2.0,0.33333333333333304,4.0,2.37946428571429,-6.75,-0.525,2.8,1.65,Female,20,Right handed,Polytechnic,Chinese,Buddhism,Singaporean,Yes,Social,84.53466712088819,-2.9965142541648504
2,40,Social,1,1,16,Indirect,TRUTH,Do you have 4 siblings?,0.9611111111111109,0.9814262085128576,5.91575067024678,44,34,12,90,36,33,69,0.170740740740741,0.657568185846362,0.8024574349711301,46,24,18,3.25,0.166666666666667,3.8,1.28571428571429,4.2,2.0,0.33333333333333304,4.0,2.37946428571429,-6.75,-0.525,2.8,1.65,Female,20,Right handed,Polytechnic,Chinese,Buddhism,Singaporean,Yes,Social,84.20082601343258,4.412271687012307
2,41,Polygraph,0,0,10,Indirect,TRUTH,Do you hate eating Pancakes the most?,0.9777777777777779,3.268191074952483,8.88267470546998,44,34,12,90,36,33,69,0.170740740740741,0.657568185846362,0.8024574349711301,46,24,18,3.25,0.166666666666667,3.8,1.28571428571429,4.2,2.0,0.33333333333333304,4.0,2.37946428571429,-6.75,-0.525,2.8,1.65,Female,20,Right handed,Polytechnic,Chinese,Buddhism,Singaporean,Yes,Polygraph,81.16170278898615,-4.06556967996093
2,42,Polygraph,0,0,22,Indirect,LIE,Are you in your 1st year in NTU?,0.0231481481481481,2.567155076889321,8.86568407155573,44,34,12,90,36,33,69,0.170740740740741,0.657568185846362,0.8024574349711301,46,24,18,3.25,0.166666666666667,3.8,1.28571428571429,4.2,2.0,0.33333333333333304,4.0,2.37946428571429,-6.75,-0.525,2.8,1.65,Female,20,Right handed,Polytechnic,Chinese,Buddhism,Singaporean,Yes,Polygraph,89.75311094640801,-1.2349269167528831
2,43,Polygraph,0,0,3,Indirect,LIE,Is Joel your closest friend back in secondary school?,0.0611111111111111,4.369148732628673,8.882328239269551,44,34,12,90,36,33,69,0.170740740740741,0.657568185846362,0.8024574349711301,46,24,18,3.25,0.166666666666667,3.8,1.28571428571429,4.2,2.0,0.33333333333333304,4.0,2.37946428571429,-6.75,-0.525,2.8,1.65,Female,20,Right handed,Polytechnic,Chinese,Buddhism,Singaporean,Yes,Polygraph,84.97413086673035,-1.5936533159622144
2,44,Polygraph,0,0,7,Direct,TRUTH,What is your favourite sport?,0.9518518518518521,2.568278204649687,8.81565179908648,44,34,12,90,36,33,69,0.170740740740741,0.657568185846362,0.8024574349711301,46,24,18,3.25,0.166666666666667,3.8,1.28571428571429,4.2,2.0,0.33333333333333304,4.0,2.37946428571429,-6.75,-0.525,2.8,1.65,Female,20,Right handed,Polytechnic,Chinese,Buddhism,Singaporean,Yes,Polygraph,83.3820399201047,3.0546828353082702
2,45,Polygraph,0,0,20,Direct,TRUTH,Which floor of the building is your house on?,0.9518518518518521,4.067085783928633,8.86596124456264,44,34,12,90,36,33,69,0.170740740740741,0.657568185846362,0.8024574349711301,46,24,18,3.25,0.166666666666667,3.8,1.28571428571429,4.2,2.0,0.33333333333333304,4.0,2.37946428571429,-6.75,-0.525,2.8,1.65,Female,20,Right handed,Polytechnic,Chinese,Buddhism,Singaporean,Yes,Polygraph,78.9706153061198,4.665139409979318
2,46,Polygraph,0,0,22,Indirect,TRUTH,Are you in your 3rd year in NTU?,0.9518518518518521,1.549606247805059,8.8494373774156,44,34,12,90,36,33,69,0.170740740740741,0.657568185846362,0.8024574349711301,46,24,18,3.25,0.166666666666667,3.8,1.28571428571429,4.2,2.0,0.33333333333333304,4.0,2.37946428571429,-6.75,-0.525,2.8,1.65,Female,20,Right handed,Polytechnic,Chinese,Buddhism,Singaporean,Yes,Polygraph,76.9767829965837,2.128630439869923
2,47,Polygraph,0,0,21,Indirect,LIE,Are you from School of Physical and Mathematical Sciences in NTU?,0.037962962962963,2.050051199970767,8.84955029981211,44,34,12,90,36,33,69,0.170740740740741,0.657568185846362,0.8024574349711301,46,24,18,3.25,0.166666666666667,3.8,1.28571428571429,4.2,2.0,0.33333333333333304,4.0,2.37946428571429,-6.75,-0.525,2.8,1.65,Female,20,Right handed,Polytechnic,Chinese,Buddhism,Singaporean,Yes,Polygraph,86.56241325052893,2.1168403072356483
2,48,Polygraph,0,0,19,Indirect,TRUTH,Is the Punggol station the closest MRT to your house?,0.9342592592592591,2.4520522984676063,8.86564012174495,44,34,12,90,36,33,69,0.170740740740741,0.657568185846362,0.8024574349711301,46,24,18,3.25,0.166666666666667,3.8,1.28571428571429,4.2,2.0,0.33333333333333304,4.0,2.37946428571429,-6.75,-0.525,2.8,1.65,Female,20,Right handed,Polytechnic,Chinese,Buddhism,Singaporean,Yes,Polygraph,88.01370339540725,-5.686952434275298
2,49,Polygraph,0,0,15,Direct,TRUTH,Which polytechnic or junior college are you from?,0.922222222222222,1.76626465911977,8.88254927215166,44,34,12,90,36,33,69,0.170740740740741,0.657568185846362,0.8024574349711301,46,24,18,3.25,0.166666666666667,3.8,1.28571428571429,4.2,2.0,0.33333333333333304,4.0,2.37946428571429,-6.75,-0.525,2.8,1.65,Female,20,Right handed,Polytechnic,Chinese,Buddhism,Singaporean,Yes,Polygraph,89.54498279523102,-0.44685488326160794
2,50,Polygraph,0,0,18,Indirect,TRUTH,Was the last country you visited Taiwan?,0.92962962962963,6.902133910451084,8.848948154598471,44,34,12,90,36,33,69,0.170740740740741,0.657568185846362,0.8024574349711301,46,24,18,3.25,0.166666666666667,3.8,1.28571428571429,4.2,2.0,0.33333333333333304,4.0,2.37946428571429,-6.75,-0.525,2.8,1.65,Female,20,Right handed,Polytechnic,Chinese,Buddhism,Singaporean,Yes,Polygraph,78.97040936667892,0.6331490766008585
2,51,Polygraph,0,0,20,Direct,LIE,Which floor of the building is your house on?,0.0240740740740741,18.383789812913164,8.86604978586547,44,34,12,90,36,33,69,0.170740740740741,0.657568185846362,0.8024574349711301,46,24,18,3.25,0.166666666666667,3.8,1.28571428571429,4.2,2.0,0.33333333333333304,4.0,2.37946428571429,-6.75,-0.525,2.8,1.65,Female,20,Right handed,Polytechnic,Chinese,Buddhism,Singaporean,Yes,Polygraph,82.83576657075716,-5.4789785121886325
2,52,Polygraph,0,0,3,Direct,TRUTH,Who is your closest friend back in secondary school?,0.528703703703704,7.7014658723492175,8.84899435006082,44,34,12,90,36,33,69,0.170740740740741,0.657568185846362,0.8024574349711301,46,24,18,3.25,0.166666666666667,3.8,1.28571428571429,4.2,2.0,0.33333333333333304,4.0,2.37946428571429,-6.75,-0.525,2.8,1.65,Female,20,Right handed,Polytechnic,Chinese,Buddhism,Singaporean,Yes,Polygraph,88.77819844211966,2.2776128865762786
2,53,Polygraph,1,0,13,Direct,LIE,What is your dream job growing up?,0.0722222222222222,2.5659055535215884,7.93256486300379,44,34,12,90,36,33,69,0.170740740740741,0.657568185846362,0.8024574349711301,46,24,18,3.25,0.166666666666667,3.8,1.28571428571429,4.2,2.0,0.33333333333333304,4.0,2.37946428571429,-6.75,-0.525,2.8,1.65,Female,20,Right handed,Polytechnic,Chinese,Buddhism,Singaporean,Yes,Polygraph,86.88617506540352,4.555444636930389
2,54,Polygraph,1,1,15,Direct,LIE,Which polytechnic or junior college are you from?,0.0722222222222222,2.0359959041234106,8.79887834796682,44,34,12,90,36,33,69,0.170740740740741,0.657568185846362,0.8024574349711301,46,24,18,3.25,0.166666666666667,3.8,1.28571428571429,4.2,2.0,0.33333333333333304,4.0,2.37946428571429,-6.75,-0.525,2.8,1.65,Female,20,Right handed,Polytechnic,Chinese,Buddhism,Singaporean,Yes,Polygraph,83.50136589347919,0.6534741978880874
2,55,Polygraph,1,1,6,Direct,LIE,What CCA (Co-curricular Activity) did you join in secondary school?,0.0722222222222222,1.633375978562981,6.23295547137968,44,34,12,90,36,33,69,0.170740740740741,0.657568185846362,0.8024574349711301,46,24,18,3.25,0.166666666666667,3.8,1.28571428571429,4.2,2.0,0.33333333333333304,4.0,2.37946428571429,-6.75,-0.525,2.8,1.65,Female,20,Right handed,Polytechnic,Chinese,Buddhism,Singaporean,Yes,Polygraph,86.06402123359737,4.074477803860248
2,56,Polygraph,1,1,10,Indirect,LIE,Do you hate eating Ramen the most?,0.0722222222222222,1.9159008054994047,5.44978583278134,44,34,12,90,36,33,69,0.170740740740741,0.657568185846362,0.8024574349711301,46,24,18,3.25,0.166666666666667,3.8,1.28571428571429,4.2,2.0,0.33333333333333304,4.0,2.37946428571429,-6.75,-0.525,2.8,1.65,Female,20,Right handed,Polytechnic,Chinese,Buddhism,Singaporean,Yes,Polygraph,80.96227419440785,-3.472328063303877
2,57,Polygraph,1,1,29,Direct,LIE,What brand of handphone do you use?,0.0722222222222222,1.6332306552212685,8.84928243025206,44,34,12,90,36,33,69,0.170740740740741,0.657568185846362,0.8024574349711301,46,24,18,3.25,0.166666666666667,3.8,1.28571428571429,4.2,2.0,0.33333333333333304,4.0,2.37946428571429,-6.75,-0.525,2.8,1.65,Female,20,Right handed,Polytechnic,Chinese,Buddhism,Singaporean,Yes,Polygraph,86.20922112757326,3.912907987450069
2,58,Polygraph,1,1,2,Indirect,TRUTH,Are you from Edgefield Secondary School?,0.9388888888888891,3.153189669828862,8.848882390186189,44,34,12,90,36,33,69,0.170740740740741,0.657568185846362,0.8024574349711301,46,24,18,3.25,0.166666666666667,3.8,1.28571428571429,4.2,2.0,0.33333333333333304,4.0,2.37946428571429,-6.75,-0.525,2.8,1.65,Female,20,Right handed,Polytechnic,Chinese,Buddhism,Singaporean,Yes,Polygraph,81.55873714208848,-3.569168058601221
2,59,Polygraph,1,1,27,Indirect,TRUTH,Do you not drink alcohol at all?,0.9638888888888891,5.602137888316065,8.86552046262659,44,34,12,90,36,33,69,0.170740740740741,0.657568185846362,0.8024574349711301,46,24,18,3.25,0.166666666666667,3.8,1.28571428571429,4.2,2.0,0.33333333333333304,4.0,2.37946428571429,-6.75,-0.525,2.8,1.65,Female,20,Right handed,Polytechnic,Chinese,Buddhism,Singaporean,Yes,Polygraph,73.82509382280558,-2.567155776669594
2,60,Polygraph,1,1,5,Direct,TRUTH,What is your favourite country you visited? ,0.9842592592592591,1.4818236820865422,7.73278576694429,44,34,12,90,36,33,69,0.170740740740741,0.657568185846362,0.8024574349711301,46,24,18,3.25,0.166666666666667,3.8,1.28571428571429,4.2,2.0,0.33333333333333304,4.0,2.37946428571429,-6.75,-0.525,2.8,1.65,Female,20,Right handed,Polytechnic,Chinese,Buddhism,Singaporean,Yes,Polygraph,80.00671520065677,3.964519292129026
2,61,Polygraph,1,1,13,Indirect,TRUTH,Is your dream job a Teacher when you were growing up?,0.9861111111111109,1.8649426982738078,7.91630341182463,44,34,12,90,36,33,69,0.170740740740741,0.657568185846362,0.8024574349711301,46,24,18,3.25,0.166666666666667,3.8,1.28571428571429,4.2,2.0,0.33333333333333304,4.0,2.37946428571429,-6.75,-0.525,2.8,1.65,Female,20,Right handed,Polytechnic,Chinese,Buddhism,Singaporean,Yes,Polygraph,84.23524170407364,1.3178500636092991
2,62,Polygraph,1,0,23,Direct,TRUTH,What course are you studying?,0.987037037037037,1.5149869050364941,5.766418323153629,44,34,12,90,36,33,69,0.170740740740741,0.657568185846362,0.8024574349711301,46,24,18,3.25,0.166666666666667,3.8,1.28571428571429,4.2,2.0,0.33333333333333304,4.0,2.37946428571429,-6.75,-0.525,2.8,1.65,Female,20,Right handed,Polytechnic,Chinese,Buddhism,Singaporean,Yes,Polygraph,88.82223764284674,0.3729104316584113
2,63,Polygraph,1,1,21,Direct,TRUTH,"Which school in NTU are you from? (Eg. NBS, SSS, SOH)",0.9861111111111109,3.883496600203216,7.199597201077269,44,34,12,90,36,33,69,0.170740740740741,0.657568185846362,0.8024574349711301,46,24,18,3.25,0.166666666666667,3.8,1.28571428571429,4.2,2.0,0.33333333333333304,4.0,2.37946428571429,-6.75,-0.525,2.8,1.65,Female,20,Right handed,Polytechnic,Chinese,Buddhism,Singaporean,Yes,Polygraph,86.5038958826872,2.23423296133889
2,64,Polygraph,1,1,18,Indirect,LIE,Was the last country you visited Japan?,0.107407407407407,2.0333781600929797,8.39916071807966,44,34,12,90,36,33,69,0.170740740740741,0.657568185846362,0.8024574349711301,46,24,18,3.25,0.166666666666667,3.8,1.28571428571429,4.2,2.0,0.33333333333333304,4.0,2.37946428571429,-6.75,-0.525,2.8,1.65,Female,20,Right handed,Polytechnic,Chinese,Buddhism,Singaporean,Yes,Polygraph,80.17551449520529,-0.7460164761416905
2,65,Polygraph,1,1,5,Indirect,LIE,Is your favourite country Italy?,0.10648148148148101,1.8318250295706093,7.066384510602799,44,34,12,90,36,33,69,0.170740740740741,0.657568185846362,0.8024574349711301,46,24,18,3.25,0.166666666666667,3.8,1.28571428571429,4.2,2.0,0.33333333333333304,4.0,2.37946428571429,-6.75,-0.525,2.8,1.65,Female,20,Right handed,Polytechnic,Chinese,Buddhism,Singaporean,Yes,Polygraph,83.12312929795297,0.693986620707463
2,66,Polygraph,1,1,2,Indirect,LIE,Are you from Serangoon Secondary School?,0.10648148148148101,1.7336464787367731,8.865705565316599,44,34,12,90,36,33,69,0.170740740740741,0.657568185846362,0.8024574349711301,46,24,18,3.25,0.166666666666667,3.8,1.28571428571429,4.2,2.0,0.33333333333333304,4.0,2.37946428571429,-6.75,-0.525,2.8,1.65,Female,20,Right handed,Polytechnic,Chinese,Buddhism,Singaporean,Yes,Polygraph,85.06601076121746,-7.392441306459901
2,67,Polygraph,1,1,1,Direct,LIE,Which primary school are you from?,0.10648148148148101,1.4150628708302975,5.366273384774099,44,34,12,90,36,33,69,0.170740740740741,0.657568185846362,0.8024574349711301,46,24,18,3.25,0.166666666666667,3.8,1.28571428571429,4.2,2.0,0.33333333333333304,4.0,2.37946428571429,-6.75,-0.525,2.8,1.65,Female,20,Right handed,Polytechnic,Chinese,Buddhism,Singaporean,Yes,Polygraph,81.71061969353785,-3.5272756973900385
2,68,Polygraph,1,1,30,Direct,LIE,What brand of laptop do you mainly use?,0.10648148148148101,3.767821190180257,8.832316498039289,44,34,12,90,36,33,69,0.170740740740741,0.657568185846362,0.8024574349711301,46,24,18,3.25,0.166666666666667,3.8,1.28571428571429,4.2,2.0,0.33333333333333304,4.0,2.37946428571429,-6.75,-0.525,2.8,1.65,Female,20,Right handed,Polytechnic,Chinese,Buddhism,Singaporean,Yes,Polygraph,81.49865027605999,-2.6232021920706785
2,69,Polygraph,1,1,7,Indirect,LIE,Is your favourite sport Tennis?,0.0203703703703704,2.567433853633702,6.26636827806942,44,34,12,90,36,33,69,0.170740740740741,0.657568185846362,0.8024574349711301,46,24,18,3.25,0.166666666666667,3.8,1.28571428571429,4.2,2.0,0.33333333333333304,4.0,2.37946428571429,-6.75,-0.525,2.8,1.65,Female,20,Right handed,Polytechnic,Chinese,Buddhism,Singaporean,Yes,Polygraph,87.88307442978922,-0.25277754353454895
2,70,Polygraph,1,1,27,Indirect,LIE,Do you drink alcohol socially?,0.0203703703703704,1.6491773996967822,7.61581175075844,44,34,12,90,36,33,69,0.170740740740741,0.657568185846362,0.8024574349711301,46,24,18,3.25,0.166666666666667,3.8,1.28571428571429,4.2,2.0,0.33333333333333304,4.0,2.37946428571429,-6.75,-0.525,2.8,1.65,Female,20,Right handed,Polytechnic,Chinese,Buddhism,Singaporean,Yes,Polygraph,87.06366361677928,4.077230409068605
2,71,Polygraph,1,1,28,Indirect,LIE,Is your religion Buddhism?,0.0203703703703704,1.5486714306753129,7.36619093874469,44,34,12,90,36,33,69,0.170740740740741,0.657568185846362,0.8024574349711301,46,24,18,3.25,0.166666666666667,3.8,1.28571428571429,4.2,2.0,0.33333333333333304,4.0,2.37946428571429,-6.75,-0.525,2.8,1.65,Female,20,Right handed,Polytechnic,Chinese,Buddhism,Singaporean,Yes,Polygraph,85.94548156113518,0.21721082105011646
2,72,Polygraph,1,1,23,Indirect,LIE,Are you studying Chemistry and Biological Chemistry in NTU?,0.0203703703703704,1.3335438864305615,8.849017126951368,44,34,12,90,36,33,69,0.170740740740741,0.657568185846362,0.8024574349711301,46,24,18,3.25,0.166666666666667,3.8,1.28571428571429,4.2,2.0,0.33333333333333304,4.0,2.37946428571429,-6.75,-0.525,2.8,1.65,Female,20,Right handed,Polytechnic,Chinese,Buddhism,Singaporean,Yes,Polygraph,78.82430586088367,-1.5983220677800745
2,73,Polygraph,1,1,6,Direct,TRUTH,What CCA (Co-curricular Activity) did you join in secondary school?,0.95462962962963,1.9817178174853325,6.46590420580469,44,34,12,90,36,33,69,0.170740740740741,0.657568185846362,0.8024574349711301,46,24,18,3.25,0.166666666666667,3.8,1.28571428571429,4.2,2.0,0.33333333333333304,4.0,2.37946428571429,-6.75,-0.525,2.8,1.65,Female,20,Right handed,Polytechnic,Chinese,Buddhism,Singaporean,Yes,Polygraph,86.79632533793925,1.519977330031466
2,74,Polygraph,1,1,16,Direct,TRUTH,"How many siblings do you have? (Eg. 0, 1, 2, 3)",0.95462962962963,1.4659000355750322,4.46609700797126,44,34,12,90,36,33,69,0.170740740740741,0.657568185846362,0.8024574349711301,46,24,18,3.25,0.166666666666667,3.8,1.28571428571429,4.2,2.0,0.33333333333333304,4.0,2.37946428571429,-6.75,-0.525,2.8,1.65,Female,20,Right handed,Polytechnic,Chinese,Buddhism,Singaporean,Yes,Polygraph,88.34593938326105,-1.4639632649989665
2,75,Polygraph,1,1,29,Indirect,TRUTH,Do you use a Samsung phone?,0.948148148148148,2.200459195766598,8.69919491535984,44,34,12,90,36,33,69,0.170740740740741,0.657568185846362,0.8024574349711301,46,24,18,3.25,0.166666666666667,3.8,1.28571428571429,4.2,2.0,0.33333333333333304,4.0,2.37946428571429,-6.75,-0.525,2.8,1.65,Female,20,Right handed,Polytechnic,Chinese,Buddhism,Singaporean,Yes,Polygraph,84.7628901691167,-4.785281059747845
2,76,Polygraph,1,1,30,Indirect,TRUTH,Do you use an Apple laptop?,0.869444444444444,5.850241948850453,5.383302194066349,44,34,12,90,36,33,69,0.170740740740741,0.657568185846362,0.8024574349711301,46,24,18,3.25,0.166666666666667,3.8,1.28571428571429,4.2,2.0,0.33333333333333304,4.0,2.37946428571429,-6.75,-0.525,2.8,1.65,Female,20,Right handed,Polytechnic,Chinese,Buddhism,Singaporean,Yes,Polygraph,74.4217476270108,3.5250117575091338
2,77,Polygraph,1,1,16,Indirect,LIE,Do you have 2 siblings?,0.0453703703703704,1.9840285538230091,8.865779349813241,44,34,12,90,36,33,69,0.170740740740741,0.657568185846362,0.8024574349711301,46,24,18,3.25,0.166666666666667,3.8,1.28571428571429,4.2,2.0,0.33333333333333304,4.0,2.37946428571429,-6.75,-0.525,2.8,1.65,Female,20,Right handed,Polytechnic,Chinese,Buddhism,Singaporean,Yes,Polygraph,78.3959669583403,0.5334491177664944
2,78,Polygraph,1,1,19,Direct,LIE,Which MRT station is closest to your house?,0.0425925925925926,1.7824542503803968,8.849136144621301,44,34,12,90,36,33,69,0.170740740740741,0.657568185846362,0.8024574349711301,46,24,18,3.25,0.166666666666667,3.8,1.28571428571429,4.2,2.0,0.33333333333333304,4.0,2.37946428571429,-6.75,-0.525,2.8,1.65,Female,20,Right handed,Polytechnic,Chinese,Buddhism,Singaporean,Yes,Polygraph,87.76920569377381,-3.1490593964312836
2,79,Polygraph,1,1,1,Indirect,TRUTH,Are you from Woodlands Primary School?,0.955555555555555,2.100134480278939,8.865889384876938,44,34,12,90,36,33,69,0.170740740740741,0.657568185846362,0.8024574349711301,46,24,18,3.25,0.166666666666667,3.8,1.28571428571429,4.2,2.0,0.33333333333333304,4.0,2.37946428571429,-6.75,-0.525,2.8,1.65,Female,20,Right handed,Polytechnic,Chinese,Buddhism,Singaporean,Yes,Polygraph,86.43269241089683,-2.179453599535236
2,80,Polygraph,1,1,28,Direct,TRUTH,What religion do you practice?,0.950925925925926,1.566685423022136,8.84875150281005,44,34,12,90,36,33,69,0.170740740740741,0.657568185846362,0.8024574349711301,46,24,18,3.25,0.166666666666667,3.8,1.28571428571429,4.2,2.0,0.33333333333333304,4.0,2.37946428571429,-6.75,-0.525,2.8,1.65,Female,20,Right handed,Polytechnic,Chinese,Buddhism,Singaporean,Yes,Polygraph,83.9489902255466,2.5901169785732066
3,1,Social,1,1,20,Direct,LIE,Which floor of the building is your house on?,,None,4.49935069680214,33,28,10,71,33,48,81,,0.7445112854506191,,43,18,21,4.0,1.8333333333333302,2.0,3.14285714285714,3.8,3.75,3.3333333333333304,4.0,3.23244047619048,3.2,-0.375,6.15,5.025,Female,21,Right handed,Junior College,Chinese,Buddhism,Singaporean,Yes,Social,70.31965156209485,1.5015728127699788
3,2,Social,1,1,6,Indirect,TRUTH,Were you in the Netball CCA during secondary school?,,None,4.19925586786121,33,28,10,71,33,48,81,,0.7445112854506191,,43,18,21,4.0,1.8333333333333302,2.0,3.14285714285714,3.8,3.75,3.3333333333333304,4.0,3.23244047619048,3.2,-0.375,6.15,5.025,Female,21,Right handed,Junior College,Chinese,Buddhism,Singaporean,Yes,Social,78.89706525588588,4.827750455327632
3,3,Social,1,1,29,Direct,TRUTH,What brand of handphone do you use?,,None,2.46688072709367,33,28,10,71,33,48,81,,0.7445112854506191,,43,18,21,4.0,1.8333333333333302,2.0,3.14285714285714,3.8,3.75,3.3333333333333304,4.0,3.23244047619048,3.2,-0.375,6.15,5.025,Female,21,Right handed,Junior College,Chinese,Buddhism,Singaporean,Yes,Social,86.35770078696268,-3.2232405928347134
3,4,Social,0,0,24,Direct,TRUTH,"How old is your mum? (Eg. 45, 52)",,None,2.76615237817168,33,28,10,71,33,48,81,,0.7445112854506191,,43,18,21,4.0,1.8333333333333302,2.0,3.14285714285714,3.8,3.75,3.3333333333333304,4.0,3.23244047619048,3.2,-0.375,6.15,5.025,Female,21,Right handed,Junior College,Chinese,Buddhism,Singaporean,Yes,Social,77.32153586613673,3.5747726213006104
3,5,Social,1,1,19,Direct,TRUTH,Which MRT station is closest to your house?,,None,3.9327987278811603,33,28,10,71,33,48,81,,0.7445112854506191,,43,18,21,4.0,1.8333333333333302,2.0,3.14285714285714,3.8,3.75,3.3333333333333304,4.0,3.23244047619048,3.2,-0.375,6.15,5.025,Female,21,Right handed,Junior College,Chinese,Buddhism,Singaporean,Yes,Social,75.1168257392947,4.012645338099176
3,6,Social,1,1,30,Direct,LIE,What brand of laptop do you mainly use?,,None,3.03315680660307,33,28,10,71,33,48,81,,0.7445112854506191,,43,18,21,4.0,1.8333333333333302,2.0,3.14285714285714,3.8,3.75,3.3333333333333304,4.0,3.23244047619048,3.2,-0.375,6.15,5.025,Female,21,Right handed,Junior College,Chinese,Buddhism,Singaporean,Yes,Social,78.03294888184065,1.5724759443113072
3,7,Social,1,1,1,Direct,LIE,Which primary school are you from?,,None,2.56662222463638,33,28,10,71,33,48,81,,0.7445112854506191,,43,18,21,4.0,1.8333333333333302,2.0,3.14285714285714,3.8,3.75,3.3333333333333304,4.0,3.23244047619048,3.2,-0.375,6.15,5.025,Female,21,Right handed,Junior College,Chinese,Buddhism,Singaporean,Yes,Social,86.58183243852757,9.002949770308732
3,8,Social,1,1,26,Indirect,TRUTH,Do you smoke regularly?,,None,2.03302976908162,33,28,10,71,33,48,81,,0.7445112854506191,,43,18,21,4.0,1.8333333333333302,2.0,3.14285714285714,3.8,3.75,3.3333333333333304,4.0,3.23244047619048,3.2,-0.375,6.15,5.025,Female,21,Right handed,Junior College,Chinese,Buddhism,Singaporean,Yes,Social,79.2012236598663,3.535954860611639
3,9,Social,0,0,14,Indirect,TRUTH,Is your favourite flavour Strawberry?,,None,3.56628217501566,33,28,10,71,33,48,81,,0.7445112854506191,,43,18,21,4.0,1.8333333333333302,2.0,3.14285714285714,3.8,3.75,3.3333333333333304,4.0,3.23244047619048,3.2,-0.375,6.15,5.025,Female,21,Right handed,Junior College,Chinese,Buddhism,Singaporean,Yes,Social,70.85599542474162,-1.8888274212387728
3,10,Social,0,0,14,Indirect,LIE,Is your favourite flavour Chocolate?,,None,3.3329972396604703,33,28,10,71,33,48,81,,0.7445112854506191,,43,18,21,4.0,1.8333333333333302,2.0,3.14285714285714,3.8,3.75,3.3333333333333304,4.0,3.23244047619048,3.2,-0.375,6.15,5.025,Female,21,Right handed,Junior College,Chinese,Buddhism,Singaporean,Yes,Social,80.54509284424063,-2.099535254932931
3,11,Social,1,1,2,Direct,TRUTH,Which secondary school did you attend?,,None,3.06616829009727,33,28,10,71,33,48,81,,0.7445112854506191,,43,18,21,4.0,1.8333333333333302,2.0,3.14285714285714,3.8,3.75,3.3333333333333304,4.0,3.23244047619048,3.2,-0.375,6.15,5.025,Female,21,Right handed,Junior College,Chinese,Buddhism,Singaporean,Yes,Social,70.91653475961044,2.8443880932464367
3,12,Social,1,1,25,Direct,TRUTH,"How old is your dad? (Eg. 45, 52)",,None,2.6496788132935802,33,28,10,71,33,48,81,,0.7445112854506191,,43,18,21,4.0,1.8333333333333302,2.0,3.14285714285714,3.8,3.75,3.3333333333333304,4.0,3.23244047619048,3.2,-0.375,6.15,5.025,Female,21,Right handed,Junior College,Chinese,Buddhism,Singaporean,Yes,Social,85.0958825396501,3.3180941233737826
3,13,Social,1,0,4,Indirect,LIE,Is Mrs Leong your favourite teacher in secondary school?,,None,2.79954208713025,33,28,10,71,33,48,81,,0.7445112854506191,,43,18,21,4.0,1.8333333333333302,2.0,3.14285714285714,3.8,3.75,3.3333333333333304,4.0,3.23244047619048,3.2,-0.375,6.15,5.025,Female,21,Right handed,Junior College,Chinese,Buddhism,Singaporean,Yes,Social,70.74229855689372,4.5231215502278275
3,14,Social,1,1,23,Indirect,LIE,Are you studying Business course in NTU?,,None,3.0663315784186103,33,28,10,71,33,48,81,,0.7445112854506191,,43,18,21,4.0,1.8333333333333302,2.0,3.14285714285714,3.8,3.75,3.3333333333333304,4.0,3.23244047619048,3.2,-0.375,6.15,5.025,Female,21,Right handed,Junior College,Chinese,Buddhism,Singaporean,Yes,Social,74.73486189823082,1.4602570893314493
3,15,Social,1,1,26,Indirect,LIE,Do you not smoke at all? ,,None,2.8665621066466005,33,28,10,71,33,48,81,,0.7445112854506191,,43,18,21,4.0,1.8333333333333302,2.0,3.14285714285714,3.8,3.75,3.3333333333333304,4.0,3.23244047619048,3.2,-0.375,6.15,5.025,Female,21,Right handed,Junior College,Chinese,Buddhism,Singaporean,Yes,Social,73.96263156713965,2.247212866945631
3,16,Social,1,1,1,Indirect,TRUTH,Are you from Canberra Primary School?,,None,3.03319434076548,33,28,10,71,33,48,81,,0.7445112854506191,,43,18,21,4.0,1.8333333333333302,2.0,3.14285714285714,3.8,3.75,3.3333333333333304,4.0,3.23244047619048,3.2,-0.375,6.15,5.025,Female,21,Right handed,Junior College,Chinese,Buddhism,Singaporean,Yes,Social,73.31637009176796,2.7837281323194247
3,17,Social,1,0,15,Indirect,TRUTH,Are you from Temasek Polytechnic?,,None,3.03293834021315,33,28,10,71,33,48,81,,0.7445112854506191,,43,18,21,4.0,1.8333333333333302,2.0,3.14285714285714,3.8,3.75,3.3333333333333304,4.0,3.23244047619048,3.2,-0.375,6.15,5.025,Female,21,Right handed,Junior College,Chinese,Buddhism,Singaporean,Yes,Social,70.44282151497012,1.9221716936297497
3,18,Social,1,0,28,Indirect,TRUTH,Is your religion Buddhism?,,None,2.36616367101669,33,28,10,71,33,48,81,,0.7445112854506191,,43,18,21,4.0,1.8333333333333302,2.0,3.14285714285714,3.8,3.75,3.3333333333333304,4.0,3.23244047619048,3.2,-0.375,6.15,5.025,Female,21,Right handed,Junior College,Chinese,Buddhism,Singaporean,Yes,Social,73.0372915619923,1.1106931826579398
3,19,Social,1,1,15,Direct,LIE,Which polytechnic or junior college are you from?,,None,2.7665488896891497,33,28,10,71,33,48,81,,0.7445112854506191,,43,18,21,4.0,1.8333333333333302,2.0,3.14285714285714,3.8,3.75,3.3333333333333304,4.0,3.23244047619048,3.2,-0.375,6.15,5.025,Female,21,Right handed,Junior College,Chinese,Buddhism,Singaporean,Yes,Social,75.15238569851849,2.153780899705211
3,20,Social,1,1,22,Indirect,TRUTH,Are you in your 3rd year in NTU?,,None,3.166481457185,33,28,10,71,33,48,81,,0.7445112854506191,,43,18,21,4.0,1.8333333333333302,2.0,3.14285714285714,3.8,3.75,3.3333333333333304,4.0,3.23244047619048,3.2,-0.375,6.15,5.025,Female,21,Right handed,Junior College,Chinese,Buddhism,Singaporean,Yes,Social,75.56852918100915,2.039112492199976
3,21,Social,1,1,25,Indirect,LIE,Is your dad 49 years old this year?,,None,2.93349198065698,33,28,10,71,33,48,81,,0.7445112854506191,,43,18,21,4.0,1.8333333333333302,2.0,3.14285714285714,3.8,3.75,3.3333333333333304,4.0,3.23244047619048,3.2,-0.375,6.15,5.025,Female,21,Right handed,Junior College,Chinese,Buddhism,Singaporean,Yes,Social,79.28351251840341,3.538905908863242
3,22,Social,1,1,17,Indirect,TRUTH,Did you celebrate your 21st birthday at home?,,None,4.06615642085671,33,28,10,71,33,48,81,,0.7445112854506191,,43,18,21,4.0,1.8333333333333302,2.0,3.14285714285714,3.8,3.75,3.3333333333333304,4.0,3.23244047619048,3.2,-0.375,6.15,5.025,Female,21,Right handed,Junior College,Chinese,Buddhism,Singaporean,Yes,Social,76.9702958621286,3.6753667303491397
3,23,Social,1,1,28,Direct,LIE,What religion do you practice?,,None,2.33322982117534,33,28,10,71,33,48,81,,0.7445112854506191,,43,18,21,4.0,1.8333333333333302,2.0,3.14285714285714,3.8,3.75,3.3333333333333304,4.0,3.23244047619048,3.2,-0.375,6.15,5.025,Female,21,Right handed,Junior College,Chinese,Buddhism,Singaporean,Yes,Social,69.93352942746817,2.2134391340144504
3,24,Social,1,1,4,Direct,TRUTH,Who is your favourite teacher in secondary school?,,None,4.16607981314883,33,28,10,71,33,48,81,,0.7445112854506191,,43,18,21,4.0,1.8333333333333302,2.0,3.14285714285714,3.8,3.75,3.3333333333333304,4.0,3.23244047619048,3.2,-0.375,6.15,5.025,Female,21,Right handed,Junior College,Chinese,Buddhism,Singaporean,Yes,Social,70.92907445700921,1.080413223016194
3,25,Social,1,1,22,Indirect,LIE,Are you in your 1st year in NTU?,,None,2.66669767722487,33,28,10,71,33,48,81,,0.7445112854506191,,43,18,21,4.0,1.8333333333333302,2.0,3.14285714285714,3.8,3.75,3.3333333333333304,4.0,3.23244047619048,3.2,-0.375,6.15,5.025,Female,21,Right handed,Junior College,Chinese,Buddhism,Singaporean,Yes,Social,72.38380139372886,3.3612145916168856
3,26,Social,1,1,24,Indirect,LIE,Is your mum 42 years old this year?,,None,3.11625542026013,33,28,10,71,33,48,81,,0.7445112854506191,,43,18,21,4.0,1.8333333333333302,2.0,3.14285714285714,3.8,3.75,3.3333333333333304,4.0,3.23244047619048,3.2,-0.375,6.15,5.025,Female,21,Right handed,Junior College,Chinese,Buddhism,Singaporean,Yes,Social,71.86803937132048,0.3691813486903186
3,27,Social,1,1,20,Indirect,TRUTH,Is your house on the 6th floor of the building?,,None,3.63271223939955,33,28,10,71,33,48,81,,0.7445112854506191,,43,18,21,4.0,1.8333333333333302,2.0,3.14285714285714,3.8,3.75,3.3333333333333304,4.0,3.23244047619048,3.2,-0.375,6.15,5.025,Female,21,Right handed,Junior College,Chinese,Buddhism,Singaporean,Yes,Social,69.43790371084172,-0.14612529701244625
3,28,Social,1,1,16,Indirect,LIE,Do you have 3 siblings?,,None,5.632646154146639,33,28,10,71,33,48,81,,0.7445112854506191,,43,18,21,4.0,1.8333333333333302,2.0,3.14285714285714,3.8,3.75,3.3333333333333304,4.0,3.23244047619048,3.2,-0.375,6.15,5.025,Female,21,Right handed,Junior College,Chinese,Buddhism,Singaporean,Yes,Social,81.66256869393686,8.754679149035454
3,29,Social,1,1,17,Direct,LIE,Where did you celebrate your 21st birthday?,,None,4.24934139382094,33,28,10,71,33,48,81,,0.7445112854506191,,43,18,21,4.0,1.8333333333333302,2.0,3.14285714285714,3.8,3.75,3.3333333333333304,4.0,3.23244047619048,3.2,-0.375,6.15,5.025,Female,21,Right handed,Junior College,Chinese,Buddhism,Singaporean,Yes,Social,76.09146431544552,1.3204679390118201
3,30,Social,1,0,18,Indirect,TRUTH,Was the last country you visited Australia?,,None,3.4999271780252497,33,28,10,71,33,48,81,,0.7445112854506191,,43,18,21,4.0,1.8333333333333302,2.0,3.14285714285714,3.8,3.75,3.3333333333333304,4.0,3.23244047619048,3.2,-0.375,6.15,5.025,Female,21,Right handed,Junior College,Chinese,Buddhism,Singaporean,Yes,Social,76.50655041788683,2.1551396462979966
3,31,Social,1,1,16,Indirect,TRUTH,Do you have 0 siblings?,,None,2.6998971509747203,33,28,10,71,33,48,81,,0.7445112854506191,,43,18,21,4.0,1.8333333333333302,2.0,3.14285714285714,3.8,3.75,3.3333333333333304,4.0,3.23244047619048,3.2,-0.375,6.15,5.025,Female,21,Right handed,Junior College,Chinese,Buddhism,Singaporean,Yes,Social,74.996314484706,-1.3127720389533977
3,32,Social,1,1,12,Direct,TRUTH,What was your favourite subject back in secondary school?,,None,4.03291331790388,33,28,10,71,33,48,81,,0.7445112854506191,,43,18,21,4.0,1.8333333333333302,2.0,3.14285714285714,3.8,3.75,3.3333333333333304,4.0,3.23244047619048,3.2,-0.375,6.15,5.025,Female,21,Right handed,Junior College,Chinese,Buddhism,Singaporean,Yes,Social,76.88299392765339,8.000970339319366
3,33,Social,1,1,2,Indirect,LIE,Are you from Naval Base Secondary School?,,None,3.59967894153669,33,28,10,71,33,48,81,,0.7445112854506191,,43,18,21,4.0,1.8333333333333302,2.0,3.14285714285714,3.8,3.75,3.3333333333333304,4.0,3.23244047619048,3.2,-0.375,6.15,5.025,Female,21,Right handed,Junior College,Chinese,Buddhism,Singaporean,Yes,Social,72.50996677510774,-0.7612665405706593
3,34,Social,1,1,19,Direct,LIE,Which MRT station is closest to your house?,,None,4.0996234426274905,33,28,10,71,33,48,81,,0.7445112854506191,,43,18,21,4.0,1.8333333333333302,2.0,3.14285714285714,3.8,3.75,3.3333333333333304,4.0,3.23244047619048,3.2,-0.375,6.15,5.025,Female,21,Right handed,Junior College,Chinese,Buddhism,Singaporean,Yes,Social,84.86235159577724,10.002512433013521
3,35,Social,1,1,23,Indirect,TRUTH,Are you studying Materials Science and Engineering course in NTU?,,None,4.19932740693912,33,28,10,71,33,48,81,,0.7445112854506191,,43,18,21,4.0,1.8333333333333302,2.0,3.14285714285714,3.8,3.75,3.3333333333333304,4.0,3.23244047619048,3.2,-0.375,6.15,5.025,Female,21,Right handed,Junior College,Chinese,Buddhism,Singaporean,Yes,Social,74.12808383079494,0.21137559904278191
3,36,Social,1,0,18,Direct,LIE,What was the last country you visited?,,None,3.73318388219923,33,28,10,71,33,48,81,,0.7445112854506191,,43,18,21,4.0,1.8333333333333302,2.0,3.14285714285714,3.8,3.75,3.3333333333333304,4.0,3.23244047619048,3.2,-0.375,6.15,5.025,Female,21,Right handed,Junior College,Chinese,Buddhism,Singaporean,Yes,Social,86.409290986118,5.274533964873271
3,37,Social,1,1,30,Direct,TRUTH,What brand of laptop do you mainly use?,,None,3.7993653253652204,33,28,10,71,33,48,81,,0.7445112854506191,,43,18,21,4.0,1.8333333333333302,2.0,3.14285714285714,3.8,3.75,3.3333333333333304,4.0,3.23244047619048,3.2,-0.375,6.15,5.025,Female,21,Right handed,Junior College,Chinese,Buddhism,Singaporean,Yes,Social,71.8145385108245,1.4314250985058266
3,38,Social,1,1,6,Indirect,LIE,Were you in the NPCC CCA during secondary school?,,None,4.19964371761307,33,28,10,71,33,48,81,,0.7445112854506191,,43,18,21,4.0,1.8333333333333302,2.0,3.14285714285714,3.8,3.75,3.3333333333333304,4.0,3.23244047619048,3.2,-0.375,6.15,5.025,Female,21,Right handed,Junior College,Chinese,Buddhism,Singaporean,Yes,Social,76.65695872035751,6.631703922984784
3,39,Social,1,1,29,Direct,LIE,What brand of handphone do you use?,,None,3.3667828179895896,33,28,10,71,33,48,81,,0.7445112854506191,,43,18,21,4.0,1.8333333333333302,2.0,3.14285714285714,3.8,3.75,3.3333333333333304,4.0,3.23244047619048,3.2,-0.375,6.15,5.025,Female,21,Right handed,Junior College,Chinese,Buddhism,Singaporean,Yes,Social,72.81430786802152,1.9512841169045458
3,40,Social,1,1,12,Direct,LIE,What was your favourite subject back in secondary school?,,None,4.01600769674405,33,28,10,71,33,48,81,,0.7445112854506191,,43,18,21,4.0,1.8333333333333302,2.0,3.14285714285714,3.8,3.75,3.3333333333333304,4.0,3.23244047619048,3.2,-0.375,6.15,5.025,Female,21,Right handed,Junior College,Chinese,Buddhism,Singaporean,Yes,Social,72.16015216877493,0.7526314194100223
3,41,Polygraph,1,1,2,Indirect,TRUTH,Are you from Anderson Secondary School?,,None,3.7662983429618198,33,28,10,71,33,48,81,,0.7445112854506191,,43,18,21,4.0,1.8333333333333302,2.0,3.14285714285714,3.8,3.75,3.3333333333333304,4.0,3.23244047619048,3.2,-0.375,6.15,5.025,Female,21,Right handed,Junior College,Chinese,Buddhism,Singaporean,Yes,Polygraph,71.40927478447453,-0.5168844698555404
3,42,Polygraph,1,1,29,Indirect,TRUTH,Do you use a Apple phone?,,None,3.5164754260331406,33,28,10,71,33,48,81,,0.7445112854506191,,43,18,21,4.0,1.8333333333333302,2.0,3.14285714285714,3.8,3.75,3.3333333333333304,4.0,3.23244047619048,3.2,-0.375,6.15,5.025,Female,21,Right handed,Junior College,Chinese,Buddhism,Singaporean,Yes,Polygraph,69.9928636185859,3.1302917194128526
3,43,Polygraph,1,1,28,Direct,TRUTH,What religion do you practice?,,None,2.84918747283518,33,28,10,71,33,48,81,,0.7445112854506191,,43,18,21,4.0,1.8333333333333302,2.0,3.14285714285714,3.8,3.75,3.3333333333333304,4.0,3.23244047619048,3.2,-0.375,6.15,5.025,Female,21,Right handed,Junior College,Chinese,Buddhism,Singaporean,Yes,Polygraph,78.77031934494875,7.507926895246911
3,44,Polygraph,1,1,23,Direct,TRUTH,What course are you studying?,,None,4.63282708637416,33,28,10,71,33,48,81,,0.7445112854506191,,43,18,21,4.0,1.8333333333333302,2.0,3.14285714285714,3.8,3.75,3.3333333333333304,4.0,3.23244047619048,3.2,-0.375,6.15,5.025,Female,21,Right handed,Junior College,Chinese,Buddhism,Singaporean,Yes,Polygraph,70.26630203092631,1.889678803892238
3,45,Polygraph,1,1,14,Direct,LIE,"What is your favourite flavour?(E.g. chocolate, vanilla, milktea; it can be a complicated flavour)",,None,3.39975708862767,33,28,10,71,33,48,81,,0.7445112854506191,,43,18,21,4.0,1.8333333333333302,2.0,3.14285714285714,3.8,3.75,3.3333333333333304,4.0,3.23244047619048,3.2,-0.375,6.15,5.025,Female,21,Right handed,Junior College,Chinese,Buddhism,Singaporean,Yes,Polygraph,70.16123189006296,1.8604625198254467
3,46,Polygraph,1,1,17,Indirect,LIE,Did you celebrate your 21st birthday at Marina Bay Sands?,,None,4.26588033838198,33,28,10,71,33,48,81,,0.7445112854506191,,43,18,21,4.0,1.8333333333333302,2.0,3.14285714285714,3.8,3.75,3.3333333333333304,4.0,3.23244047619048,3.2,-0.375,6.15,5.025,Female,21,Right handed,Junior College,Chinese,Buddhism,Singaporean,Yes,Polygraph,69.99210129714965,0.9107002056773723
3,47,Polygraph,1,1,12,Indirect,LIE,Was your favourite subject Chemistry back in secondary school?,,None,3.91661458974704,33,28,10,71,33,48,81,,0.7445112854506191,,43,18,21,4.0,1.8333333333333302,2.0,3.14285714285714,3.8,3.75,3.3333333333333304,4.0,3.23244047619048,3.2,-0.375,6.15,5.025,Female,21,Right handed,Junior College,Chinese,Buddhism,Singaporean,Yes,Polygraph,70.20881049229786,1.1416013787584092
3,48,Polygraph,1,1,14,Direct,TRUTH,"What is your favourite flavour?(E.g. chocolate, vanilla, milktea; it can be a complicated flavour)",,None,3.13311067549512,33,28,10,71,33,48,81,,0.7445112854506191,,43,18,21,4.0,1.8333333333333302,2.0,3.14285714285714,3.8,3.75,3.3333333333333304,4.0,3.23244047619048,3.2,-0.375,6.15,5.025,Female,21,Right handed,Junior College,Chinese,Buddhism,Singaporean,Yes,Polygraph,74.47643604588863,-7.378760657753432
3,49,Polygraph,1,0,25,Indirect,TRUTH,Is your dad 53 years old this year?,,None,6.583032848779111,33,28,10,71,33,48,81,,0.7445112854506191,,43,18,21,4.0,1.8333333333333302,2.0,3.14285714285714,3.8,3.75,3.3333333333333304,4.0,3.23244047619048,3.2,-0.375,6.15,5.025,Female,21,Right handed,Junior College,Chinese,Buddhism,Singaporean,Yes,Polygraph,70.32750692111023,2.2379300918968
3,50,Polygraph,1,1,1,Direct,TRUTH,Which primary school are you from?,,None,3.11668369080871,33,28,10,71,33,48,81,,0.7445112854506191,,43,18,21,4.0,1.8333333333333302,2.0,3.14285714285714,3.8,3.75,3.3333333333333304,4.0,3.23244047619048,3.2,-0.375,6.15,5.025,Female,21,Right handed,Junior College,Chinese,Buddhism,Singaporean,Yes,Polygraph,79.41720642005066,-5.677441977073514
3,51,Polygraph,0,0,24,Indirect,TRUTH,Is your mum 51 years old this year?,,None,4.73276010341942,33,28,10,71,33,48,81,,0.7445112854506191,,43,18,21,4.0,1.8333333333333302,2.0,3.14285714285714,3.8,3.75,3.3333333333333304,4.0,3.23244047619048,3.2,-0.375,6.15,5.025,Female,21,Right handed,Junior College,Chinese,Buddhism,Singaporean,Yes,Polygraph,71.32887867265147,2.9132763627067106
3,52,Polygraph,1,1,15,Direct,TRUTH,Which polytechnic or junior college are you from?,,None,3.1998102134093602,33,28,10,71,33,48,81,,0.7445112854506191,,43,18,21,4.0,1.8333333333333302,2.0,3.14285714285714,3.8,3.75,3.3333333333333304,4.0,3.23244047619048,3.2,-0.375,6.15,5.025,Female,21,Right handed,Junior College,Chinese,Buddhism,Singaporean,Yes,Polygraph,71.2363081559165,0.017097503236271905
3,53,Polygraph,1,0,18,Indirect,LIE,"Was the last country you visited Bei Jing, China?",,None,3.49980816058815,33,28,10,71,33,48,81,,0.7445112854506191,,43,18,21,4.0,1.8333333333333302,2.0,3.14285714285714,3.8,3.75,3.3333333333333304,4.0,3.23244047619048,3.2,-0.375,6.15,5.025,Female,21,Right handed,Junior College,Chinese,Buddhism,Singaporean,Yes,Polygraph,67.118418801614,-0.0032443824634214025
3,54,Polygraph,1,1,29,Indirect,LIE,Do you use a Xiaomi phone?,,None,2.4496010504663,33,28,10,71,33,48,81,,0.7445112854506191,,43,18,21,4.0,1.8333333333333302,2.0,3.14285714285714,3.8,3.75,3.3333333333333304,4.0,3.23244047619048,3.2,-0.375,6.15,5.025,Female,21,Right handed,Junior College,Chinese,Buddhism,Singaporean,Yes,Polygraph,70.76037099347431,2.4677506782028615
3,55,Polygraph,1,1,1,Indirect,LIE,Are you from Woodlands Primary School?,,None,2.8002568343654297,33,28,10,71,33,48,81,,0.7445112854506191,,43,18,21,4.0,1.8333333333333302,2.0,3.14285714285714,3.8,3.75,3.3333333333333304,4.0,3.23244047619048,3.2,-0.375,6.15,5.025,Female,21,Right handed,Junior College,Chinese,Buddhism,Singaporean,Yes,Polygraph,76.43363624452492,6.628181527880486
3,56,Polygraph,1,1,2,Direct,LIE,Which secondary school did you attend?,,None,5.0163442180492,33,28,10,71,33,48,81,,0.7445112854506191,,43,18,21,4.0,1.8333333333333302,2.0,3.14285714285714,3.8,3.75,3.3333333333333304,4.0,3.23244047619048,3.2,-0.375,6.15,5.025,Female,21,Right handed,Junior College,Chinese,Buddhism,Singaporean,Yes,Polygraph,67.9715706263142,1.8294953110777925
3,57,Polygraph,1,1,26,Direct,LIE,How often do you smoke?,,None,3.86633914895356,33,28,10,71,33,48,81,,0.7445112854506191,,43,18,21,4.0,1.8333333333333302,2.0,3.14285714285714,3.8,3.75,3.3333333333333304,4.0,3.23244047619048,3.2,-0.375,6.15,5.025,Female,21,Right handed,Junior College,Chinese,Buddhism,Singaporean,Yes,Polygraph,69.66001884442001,1.7807553013614665
3,58,Polygraph,1,1,19,Indirect,TRUTH,Is the Redhill station the closest MRT to your house?,,None,4.766188308130951,33,28,10,71,33,48,81,,0.7445112854506191,,43,18,21,4.0,1.8333333333333302,2.0,3.14285714285714,3.8,3.75,3.3333333333333304,4.0,3.23244047619048,3.2,-0.375,6.15,5.025,Female,21,Right handed,Junior College,Chinese,Buddhism,Singaporean,Yes,Polygraph,73.91505132591325,0.9342519890989536
3,59,Polygraph,1,1,6,Direct,LIE,What CCA (Co-curricular Activity) did you join in secondary school?,,None,3.3496715631336005,33,28,10,71,33,48,81,,0.7445112854506191,,43,18,21,4.0,1.8333333333333302,2.0,3.14285714285714,3.8,3.75,3.3333333333333304,4.0,3.23244047619048,3.2,-0.375,6.15,5.025,Female,21,Right handed,Junior College,Chinese,Buddhism,Singaporean,Yes,Polygraph,73.79007403215833,3.172719814651316
3,60,Polygraph,1,1,26,Direct,TRUTH,How often do you smoke?,,None,2.06698376871645,33,28,10,71,33,48,81,,0.7445112854506191,,43,18,21,4.0,1.8333333333333302,2.0,3.14285714285714,3.8,3.75,3.3333333333333304,4.0,3.23244047619048,3.2,-0.375,6.15,5.025,Female,21,Right handed,Junior College,Chinese,Buddhism,Singaporean,Yes,Polygraph,75.27719122093397,2.8169702119388234
3,61,Polygraph,1,1,22,Direct,LIE,"Which year in NTU are you currently in? (Eg. 1, 2, 3, 4)",,None,3.4328619255684303,33,28,10,71,33,48,81,,0.7445112854506191,,43,18,21,4.0,1.8333333333333302,2.0,3.14285714285714,3.8,3.75,3.3333333333333304,4.0,3.23244047619048,3.2,-0.375,6.15,5.025,Female,21,Right handed,Junior College,Chinese,Buddhism,Singaporean,Yes,Polygraph,75.44952562003161,-2.407472501504884
3,62,Polygraph,1,1,16,Direct,LIE,"How many siblings do you have? (Eg. 0, 1, 2, 3)",,None,2.4336235094815497,33,28,10,71,33,48,81,,0.7445112854506191,,43,18,21,4.0,1.8333333333333302,2.0,3.14285714285714,3.8,3.75,3.3333333333333304,4.0,3.23244047619048,3.2,-0.375,6.15,5.025,Female,21,Right handed,Junior College,Chinese,Buddhism,Singaporean,Yes,Polygraph,73.80562097087692,3.6082940335096936
3,63,Polygraph,1,1,12,Indirect,TRUTH,Was your favourite subject Social Studies back in secondary school?,,None,2.74984056130052,33,28,10,71,33,48,81,,0.7445112854506191,,43,18,21,4.0,1.8333333333333302,2.0,3.14285714285714,3.8,3.75,3.3333333333333304,4.0,3.23244047619048,3.2,-0.375,6.15,5.025,Female,21,Right handed,Junior College,Chinese,Buddhism,Singaporean,Yes,Polygraph,68.70521895716136,-1.0094516594513294
3,64,Polygraph,1,1,23,Direct,LIE,What course are you studying?,,None,3.0659501445479704,33,28,10,71,33,48,81,,0.7445112854506191,,43,18,21,4.0,1.8333333333333302,2.0,3.14285714285714,3.8,3.75,3.3333333333333304,4.0,3.23244047619048,3.2,-0.375,6.15,5.025,Female,21,Right handed,Junior College,Chinese,Buddhism,Singaporean,Yes,Polygraph,71.17670629115312,-1.9727518941279953
3,65,Polygraph,1,1,4,Direct,LIE,Who is your favourite teacher in secondary school?,,None,4.43299794569612,33,28,10,71,33,48,81,,0.7445112854506191,,43,18,21,4.0,1.8333333333333302,2.0,3.14285714285714,3.8,3.75,3.3333333333333304,4.0,3.23244047619048,3.2,-0.375,6.15,5.025,Female,21,Right handed,Junior College,Chinese,Buddhism,Singaporean,Yes,Polygraph,71.64861615906202,1.52617798296275
3,66,Polygraph,1,1,20,Indirect,LIE,Is your house on the 15th floor of the building?,,None,2.5668910569511403,33,28,10,71,33,48,81,,0.7445112854506191,,43,18,21,4.0,1.8333333333333302,2.0,3.14285714285714,3.8,3.75,3.3333333333333304,4.0,3.23244047619048,3.2,-0.375,6.15,5.025,Female,21,Right handed,Junior College,Chinese,Buddhism,Singaporean,Yes,Polygraph,75.96394885641323,3.2143114949657985
3,67,Polygraph,1,1,22,Direct,TRUTH,"Which year in NTU are you currently in? (Eg. 1, 2, 3, 4)",,None,3.3165429867804104,33,28,10,71,33,48,81,,0.7445112854506191,,43,18,21,4.0,1.8333333333333302,2.0,3.14285714285714,3.8,3.75,3.3333333333333304,4.0,3.23244047619048,3.2,-0.375,6.15,5.025,Female,21,Right handed,Junior College,Chinese,Buddhism,Singaporean,Yes,Polygraph,76.70835673847566,-2.1002003789002686
3,68,Polygraph,1,1,15,Indirect,LIE,Are you from Serangoon Junior College?,,None,3.2495309873484097,33,28,10,71,33,48,81,,0.7445112854506191,,43,18,21,4.0,1.8333333333333302,2.0,3.14285714285714,3.8,3.75,3.3333333333333304,4.0,3.23244047619048,3.2,-0.375,6.15,5.025,Female,21,Right handed,Junior College,Chinese,Buddhism,Singaporean,Yes,Polygraph,71.20248672087645,-0.042862003850046904
3,69,Polygraph,1,1,6,Direct,TRUTH,What CCA (Co-curricular Activity) did you join in secondary school?,,None,3.39944687345996,33,28,10,71,33,48,81,,0.7445112854506191,,43,18,21,4.0,1.8333333333333302,2.0,3.14285714285714,3.8,3.75,3.3333333333333304,4.0,3.23244047619048,3.2,-0.375,6.15,5.025,Female,21,Right handed,Junior College,Chinese,Buddhism,Singaporean,Yes,Polygraph,77.66319188491536,0.9352368164229574
3,70,Polygraph,1,1,4,Indirect,TRUTH,Is Mr Tan your favourite teacher in secondary school?,,None,5.61611458752304,33,28,10,71,33,48,81,,0.7445112854506191,,43,18,21,4.0,1.8333333333333302,2.0,3.14285714285714,3.8,3.75,3.3333333333333304,4.0,3.23244047619048,3.2,-0.375,6.15,5.025,Female,21,Right handed,Junior College,Chinese,Buddhism,Singaporean,Yes,Polygraph,72.8621663491221,1.0413931628026916
3,71,Polygraph,1,1,25,Direct,LIE,"How old is your dad? (Eg. 45, 52)",,None,2.61672026198357,33,28,10,71,33,48,81,,0.7445112854506191,,43,18,21,4.0,1.8333333333333302,2.0,3.14285714285714,3.8,3.75,3.3333333333333304,4.0,3.23244047619048,3.2,-0.375,6.15,5.025,Female,21,Right handed,Junior College,Chinese,Buddhism,Singaporean,Yes,Polygraph,71.90631080934759,1.0728874172893228
3,72,Polygraph,1,1,16,Direct,TRUTH,"How many siblings do you have? (Eg. 0, 1, 2, 3)",,None,2.0494471294805403,33,28,10,71,33,48,81,,0.7445112854506191,,43,18,21,4.0,1.8333333333333302,2.0,3.14285714285714,3.8,3.75,3.3333333333333304,4.0,3.23244047619048,3.2,-0.375,6.15,5.025,Female,21,Right handed,Junior College,Chinese,Buddhism,Singaporean,Yes,Polygraph,70.38941615221987,-0.6245992126564772
3,73,Polygraph,1,1,30,Indirect,LIE,Do you use a Dell laptop?,,None,2.23311170190573,33,28,10,71,33,48,81,,0.7445112854506191,,43,18,21,4.0,1.8333333333333302,2.0,3.14285714285714,3.8,3.75,3.3333333333333304,4.0,3.23244047619048,3.2,-0.375,6.15,5.025,Female,21,Right handed,Junior College,Chinese,Buddhism,Singaporean,Yes,Polygraph,69.15591320305272,-1.0993991560194587
3,74,Polygraph,1,1,24,Direct,LIE,"How old is your mum? (Eg. 45, 52)",,None,2.8332949439063704,33,28,10,71,33,48,81,,0.7445112854506191,,43,18,21,4.0,1.8333333333333302,2.0,3.14285714285714,3.8,3.75,3.3333333333333304,4.0,3.23244047619048,3.2,-0.375,6.15,5.025,Female,21,Right handed,Junior College,Chinese,Buddhism,Singaporean,Yes,Polygraph,69.9285906559123,-0.5596798608702898
3,75,Polygraph,1,1,28,Indirect,LIE,Is your religion Catholicism?,,None,2.00001539848745,33,28,10,71,33,48,81,,0.7445112854506191,,43,18,21,4.0,1.8333333333333302,2.0,3.14285714285714,3.8,3.75,3.3333333333333304,4.0,3.23244047619048,3.2,-0.375,6.15,5.025,Female,21,Right handed,Junior College,Chinese,Buddhism,Singaporean,Yes,Polygraph,69.65029366859001,1.6062714743852666
3,76,Polygraph,1,1,19,Indirect,LIE,Is the Seng Kang station the closest MRT to your house?,,None,3.81641049543396,33,28,10,71,33,48,81,,0.7445112854506191,,43,18,21,4.0,1.8333333333333302,2.0,3.14285714285714,3.8,3.75,3.3333333333333304,4.0,3.23244047619048,3.2,-0.375,6.15,5.025,Female,21,Right handed,Junior College,Chinese,Buddhism,Singaporean,Yes,Polygraph,71.38714077532758,-1.5176215206145116
