item,style,condition,question,respond,video,bitalino,trials_3.thisRepN,trials_3.thisTrialN,trials_3.thisN,trials_3.thisIndex,Trialsloop.thisRepN,Trialsloop.thisTrialN,Trialsloop.thisN,Trialsloop.thisIndex,trials_2.thisRepN,trials_2.thisTrialN,trials_2.thisN,trials_2.thisIndex,trials.thisRepN,trials.thisTrialN,trials.thisN,trials.thisIndex,IDRESPONSE.text,sensor2.started,sensor2.stopped,sensor3.started,sensor3.stopped,sensor.started,sensor.stopped,sensor4.started,sensor4.stopped,textsubjresp.started,textsubjresp.stopped,SubjectiveResponse.response,SubjectiveResponse.rt,SubjectiveResponse.started,SubjectiveResponse.stopped,textsubjcon.started,textsubjcon.stopped,sensor5.started,sensor5.stopped,sensor1.started,sensor1.stopped,sensor6.started,sensor6.stopped,participant,session,date,expName,psychopyVersion,frameRate,
1,directx,TRUTH ,What is your favourite song?,"My favourite song is "Perfect" by Ed Sheeran",,,0,0,0,0,,,,,,,,,,,,,ID 002 ,,,,,,,,,,,,,,,,,,,,,,,002,001,2021_Feb_04_1548,deception_task,2020.2.10,59.9756802699425,
2,indirectx,LIE,What is your favourite tv-show/tv-drama?,"My favourite drama is F.R.I.E.N.D.S",,,0,1,1,1,,,,,,,,,,,,,,,,,,,,,,,,,,,,,,,,,,,,002,001,2021_Feb_04_1548,deception_task,2020.2.10,59.9756802699425,
3,directx,TRUTH ,Is George Washington your role model in life?,""No, my role model is Lee Kuan Yew"",,,0,2,2,2,,,,,,,,,,,,,,,,,,,,,,,,,,,,,,,,,,,,002,001,2021_Feb_04_1548,deception_task,2020.2.10,59.9756802699425,
4,indirectx,LIE,Is MacDonalds your favourite restaurant?,""Yes, MacDonalds is my favourite restaurant"",,,0,3,3,3,,,,,,,,,,,,,,,,,,,,,,,,,,,,,,,,,,,,002,001,2021_Feb_04_1548,deception_task,2020.2.10,59.9756802699425,
5,directx,TRUTH ,Who is your favourite celebrity?,"My favourite celebrity is Chris Hemsworth",,,0,4,4,4,,,,,,,,,,,,,,,,,,,,,,,,,,,,,,,,,,,,002,001,2021_Feb_04_1548,deception_task,2020.2.10,59.9756802699425,
1,directx,TRUTH ,What is your favourite song?,"My favourite song is "Perfect" by Ed Sheeran",,,,,,,0,0,0,0,,,,,,,,,,,,,,,,,,,,,,,,,,,,,,,,002,001,2021_Feb_04_1548,deception_task,2020.2.10,59.9756802699425,
2,indirectx,LIE,What is your favourite tv-show/tv-drama?,"My favourite drama is F.R.I.E.N.D.S",,,,,,,0,1,1,1,,,,,,,,,,,,,,,,,,,,,,,,,,,,,,,,002,001,2021_Feb_04_1548,deception_task,2020.2.10,59.9756802699425,
3,directx,TRUTH ,Is George Washington your role model in life?,""No, my role model is Lee Kuan Yew"",,,,,,,0,2,2,2,,,,,,,,,,,,,,,,,,,,,,,,,,,,,,,,002,001,2021_Feb_04_1548,deception_task,2020.2.10,59.9756802699425,
4,indirectx,LIE,Is MacDonalds your favourite restaurant?,""Yes, MacDonalds is my favourite restaurant"",,,,,,,0,3,3,3,,,,,,,,,,,,,,,,,,,,,,,,,,,,,,,,002,001,2021_Feb_04_1548,deception_task,2020.2.10,59.9756802699425,
5,directx,TRUTH ,Who is your favourite celebrity?,"My favourite celebrity is Chris Hemsworth",,,,,,,0,4,4,4,,,,,,,,,,,,,,,,,,,,,,,,,,,,,,,,002,001,2021_Feb_04_1548,deception_task,2020.2.10,59.9756802699425,
6,Indirect,LIE,Were you in the Swimming CCA during secondary school?,,video/V32.mp4,,,,,,,,,,0,0,0,0,,,,,,390.96043806150556,391.4772715026047,409.70915389130823,410.20852287393063,414.891985661583,415.42499618255533,421.2071963578928,421.707090172451,422.8402669329662,None,0.5259259259259259,7.802066477946937,422.8402669329662,None,422.8402669329662,None,,,,,,,002,001,2021_Feb_04_1548,deception_task,2020.2.10,59.9756802699425,
21,Indirect,TRUTH,Are you from School of Humanities in NTU?,,video/V22.mp4,,,,,,,,,,0,1,1,1,,,,,,434.9728948015254,435.48942957562394,441.35571258468553,441.8555204242002,444.7053132504225,445.2383314706385,452.40407829126343,452.90390569972806,454.68715072702616,None,0.9962962962962962,7.269354944117367,454.68715072702616,None,454.68715072702616,None,,,,,,,002,001,2021_Feb_04_1548,deception_task,2020.2.10,59.9756802699425,
29,Direct,TRUTH,What brand of handphone do you use?,,video/V33.mp4,,,,,,,,,,0,2,2,2,,,,,,463.05349565064535,463.5869177605491,474.33530316432007,474.83520756545477,477.5352914230898,478.0686509765219,482.8013555807993,483.3180218839552,484.48463294492103,None,0.9962962962962962,3.616894778329879,484.48463294492103,None,484.48463294492103,None,,,,,,,002,001,2021_Feb_04_1548,deception_task,2020.2.10,59.9756802699425,
22,Direct,LIE,"Which year in NTU are you currently in? (Eg. 1, 2, 3, 4)",,video/V27.mp4,,,,,,,,,,0,3,3,3,,,,,,489.1174670890905,489.61747382581234,502.4491958778817,502.9490874467883,506.06531078671105,506.5987184604164,511.2651424938813,511.765167837264,513.5315287369303,None,0,8.766320478636771,513.5315287369303,None,513.5315287369303,None,,,,,,,002,001,2021_Feb_04_1548,deception_task,2020.2.10,59.9756802699425,
5,Direct,LIE,What is your favourite country you visited? ,,video/V25.mp4,,,,,,,,,,0,4,4,4,,,,,,523.9972879404668,524.5306394738145,539.2619854819495,539.7619951060042,542.3621023178566,542.8955305230338,548.0616995189339,548.5615888424218,549.9279834902845,None,0.2185185185185185,4.799962658667937,549.9279834902845,None,549.9279834902845,None,,,,,,,002,001,2021_Feb_04_1548,deception_task,2020.2.10,59.9756802699425,
7,Indirect,TRUTH,Is your favourite sport Netball?,,video/V16.mp4,,,,,,,,,,0,5,5,5,,,,,,556.3108981556725,556.8441749424674,565.9260188993067,566.4259505684022,569.2093697909731,569.7425798508339,576.8582453161944,577.3583547095768,579.0918096695095,None,0.8601851851851852,3.0993507609236985,579.0918096695095,None,579.0918096695095,None,,,,,,,002,001,2021_Feb_04_1548,deception_task,2020.2.10,59.9756802699425,
30,Direct,TRUTH,What brand of laptop do you mainly use?,,video/V29.mp4,,,,,,,,,,0,6,6,6,,,,,,583.3747120804619,583.89138961141,599.8895048999693,600.3893063236028,603.3891959676985,603.9226167944726,607.6220600106753,608.1220763714518,609.9554434958845,None,0.999074074074074,2.2504388571251184,609.9554434958845,None,609.9554434958845,None,,,,,,,002,001,2021_Feb_04_1548,deception_task,2020.2.10,59.9756802699425,
15,Indirect,LIE,Are you from National Junior College?,,video/V34.mp4,,,,,,,,,,0,7,7,7,,,,,,613.1551593937911,613.6886366815306,625.7035263834987,626.203287065262,628.7703163877595,629.3034594000783,634.1531543815508,634.6527774392162,636.4194841634016,None,0.1601851851851852,4.683856090996414,636.4194841634016,None,636.4194841634016,None,,,,,,,002,001,2021_Feb_04_1548,deception_task,2020.2.10,59.9756802699425,
10,Direct,TRUTH,What food do you hate the most?,,video/V5.mp4,,,,,,,,,,0,8,8,8,,,,,,642.2188664912246,642.7186878046487,662.3331448088866,662.8331322974991,666.1327847407665,666.6664567552507,672.3658954801504,672.865884572966,674.6821975447237,None,0.9009259259259259,3.9500896320678294,674.6821975447237,None,674.6821975447237,None,,,,,,,002,001,2021_Feb_04_1548,deception_task,2020.2.10,59.9756802699425,
23,Direct,LIE,What course are you studying?,,video/V4.mp4,,,,,,,,,,0,9,9,9,,,,,,679.4153621790465,679.9316306877881,683.9812099880073,684.4813562738709,687.6811623168178,688.2144208177924,689.880785502959,690.3804752875585,691.6806243320461,None,0.4861111111111111,2.3499814574606717,691.6806243320461,None,691.6806243320461,None,,,,,,,002,001,2021_Feb_04_1548,deception_task,2020.2.10,59.9756802699425,
10,Direct,LIE,What food do you hate the most?,,video/V7.mp4,,,,,,,,,,0,10,10,10,,,,,,696.2135026827455,696.730145246489,728.276553098578,728.776564326603,732.0429739882238,732.576210674597,737.3093018452637,737.8090724719223,739.7759827126283,None,0.11018518518518516,4.283879573456943,739.7759827126283,None,739.7759827126283,None,,,,,,,002,001,2021_Feb_04_1548,deception_task,2020.2.10,59.9756802699425,
30,Indirect,LIE,Do you use a Dell laptop?,,video/V26.mp4,,,,,,,,,,0,11,11,11,,,,,,745.3753960300237,745.8915362181142,753.9074072530493,754.4078554133885,757.3243099229876,757.857362148352,761.5571932140738,762.0570170937572,763.8899399074726,None,0.07037037037037036,4.183841654798016,763.8899399074726,None,763.8899399074726,None,,,,,,,002,001,2021_Feb_04_1548,deception_task,2020.2.10,59.9756802699425,
18,Direct,TRUTH,What was the last country you visited?,,video/V15.mp4,,,,,,,,,,0,12,12,12,,,,,,769.322933041025,769.8563875518739,776.4717944506556,776.9720424306579,780.0217769991141,780.5547240013257,784.6880797694903,785.1881131329574,786.7710914453492,None,0.9259259259259259,2.433435519458726,786.7710914453492,None,786.7710914453492,None,,,,,,,002,001,2021_Feb_04_1548,deception_task,2020.2.10,59.9756802699425,
16,Direct,LIE,"How many siblings do you have? (Eg. 0, 1, 2, 3)",,video/V31.mp4,,,,,,,,,,0,13,13,13,,,,,,790.4708907515742,790.9875846437644,797.3869388052262,797.8868781735655,801.1196450134739,801.6531149228103,804.5193485282362,805.0192946335301,806.3187610115856,None,0.8953703703703704,2.435641353717074,806.3187610115856,None,806.3187610115856,None,,,,,,,002,001,2021_Feb_04_1548,deception_task,2020.2.10,59.9756802699425,
7,Direct,LIE,What is your favourite sport?,,video/V14.mp4,,,,,,,,,,0,14,14,14,,,,,,810.8017742272932,811.3187007007655,826.6002538185567,827.1004331468139,830.0672153877094,830.6000744902994,835.0995121244341,835.5996298587415,837.5827088388614,None,0.08333333333333331,2.300414989469573,837.5827088388614,None,837.5827088388614,None,,,,,,,002,001,2021_Feb_04_1548,deception_task,2020.2.10,59.9756802699425,
2,Direct,TRUTH,Which secondary school did you attend?,,video/V38.mp4,,,,,,,,,,0,15,15,15,,,,,,840.9657688275911,841.4822253263555,850.2649227445945,850.7814408370759,853.9144212668762,854.4477448905818,858.4474779835436,858.9473910462111,860.1303575530183,None,0.8972222222222221,1.8149595083668828,860.1303575530183,None,860.1303575530183,None,,,,,,,002,001,2021_Feb_04_1548,deception_task,2020.2.10,59.9756802699425,
19,Direct,TRUTH,Which MRT station is closest to your house?,,video/V35.mp4,,,,,,,,,,0,16,16,16,,,,,,862.7468846922275,863.2801149627194,867.1796914399602,867.6795368134044,870.9792508506216,871.5124708551448,876.6456213099882,877.1453059618361,878.9118035230786,None,0.8972222222222221,2.1654273017775267,878.9118035230786,None,878.9118035230786,None,,,,,,,002,001,2021_Feb_04_1548,deception_task,2020.2.10,59.9756802699425,
27,Direct,TRUTH,How frequently do you drink alcohol?,,video/V20.mp4,,,,,,,,,,0,17,17,17,,,,,,882.478379873326,882.9950205122586,889.760957311606,890.26079819398,893.1440275660716,893.677259440301,896.8098481709603,897.3101558201015,898.9268844227772,None,0.9824074074074074,1.6484334599226713,898.9268844227772,None,898.9268844227772,None,,,,,,,002,001,2021_Feb_04_1548,deception_task,2020.2.10,59.9756802699425,
27,Direct,LIE,How frequently do you drink alcohol?,,video/V21.mp4,,,,,,,,,,0,18,18,18,,,,,,901.9595757459756,902.476407262031,913.0088031264022,913.5084306753706,916.491245956393,917.0249211790506,920.3911765990779,920.8912901629228,922.3238675370812,None,0.005555555555555536,3.734977165237069,922.3238675370812,None,922.3238675370812,None,,,,,,,002,001,2021_Feb_04_1548,deception_task,2020.2.10,59.9756802699425,
20,Indirect,LIE,Is your house on the 16 floor of the building?,,video/V24.mp4,,,,,,,,,,0,19,19,19,,,,,,927.8403230733238,928.3571571558714,947.7214261700865,948.2386006235611,951.5050863150973,952.038000595523,956.7371393705253,957.2375567338895,958.4874611350242,None,0.017592592592592604,4.999445012770593,958.4874611350242,None,958.4874611350242,None,,,,,,,002,001,2021_Feb_04_1548,deception_task,2020.2.10,59.9756802699425,
22,Direct,TRUTH,"Which year in NTU are you currently in? (Eg. 1, 2, 3, 4)",,video/V1.mp4,,,,,,,,,,0,20,20,20,,,,,,965.1199391889386,965.6533279353753,978.2684701725375,978.7684400172438,981.8185072573833,982.3516120940913,986.3175974630285,986.8175265656319,987.8678735450376,None,0.9861111111111112,4.66636532661505,987.8678735450376,None,987.8678735450376,None,,,,,,,002,001,2021_Feb_04_1548,deception_task,2020.2.10,59.9756802699425,
15,Indirect,TRUTH,Are you from Nanyang polytechnic?,,video/V39.mp4,,,,,,,,,,0,21,21,21,,,,,,994.0506010546815,994.583679264877,1000.2832270625513,1000.7831067617517,1004.0491237617098,1004.5828875256702,1009.1156378763262,1009.6155676206108,1010.6489088884555,None,0.9935185185185185,4.55098216724582,1010.6489088884555,None,1010.6489088884555,None,,,,,,,002,001,2021_Feb_04_1548,deception_task,2020.2.10,59.9756802699425,
5,Indirect,TRUTH,Is your favourite country Korea?,,video/V13.mp4,,,,,,,,,,0,22,22,22,,,,,,1016.0145900729112,1016.5145644086879,1025.3641625081655,1025.8805365606677,1029.1138673704118,1029.647144798655,1034.4466448607855,1034.9464308859315,1036.5795928896405,None,1,3.7660064133815467,1036.5795928896405,None,1036.5795928896405,None,,,,,,,002,001,2021_Feb_04_1548,deception_task,2020.2.10,59.9756802699425,
2,Direct,LIE,Which secondary school did you attend?,,video/V12.mp4,,,,,,,,,,0,23,23,23,,,,,,1041.395800959086,1041.9122295479756,1064.643205992179,1065.1432027842384,1068.2265869111288,1068.7599609007593,1072.8592834312003,1073.359155431157,1074.7592214522883,None,0.05740740740740741,1.8314391046296805,1074.7592214522883,None,1074.7592214522883,None,,,,,,,002,001,2021_Feb_04_1548,deception_task,2020.2.10,59.9756802699425,
28,Direct,LIE,What religion do you practice?,,video/V30.mp4,,,,,,,,,,0,24,24,24,,,,,,1077.7090066433884,1078.2419972745702,1102.222960245097,1102.7229150119238,1105.2393269191962,1105.772575154435,1108.9058372483123,1109.405779824825,1110.6052548002917,None,0.03888888888888886,3.6703974863048643,1110.6052548002917,None,1110.6052548002917,None,,,,,,,002,001,2021_Feb_04_1548,deception_task,2020.2.10,59.9756802699425,
1,Direct,TRUTH,Which primary school are you from?,,video/V19.mp4,,,,,,,,,,0,25,25,25,,,,,,1115.938405704219,1116.4383312782738,1123.187840130413,1123.68760851142,1126.437379779527,1126.9707556939684,1132.370106326649,1132.8698872190434,1134.7531868466176,None,0.9685185185185186,1.498731548897922,1134.7531868466176,None,1134.7531868466176,None,,,,,,,002,001,2021_Feb_04_1548,deception_task,2020.2.10,59.9756802699425,
13,Indirect,LIE,Is your dream job a Scientist when you were growing up?,,video/V23.mp4,,,,,,,,,,0,26,26,26,,,,,,1143.7021081179846,1144.2356405837927,1152.5182398366742,1153.0180011601187,1156.1343781640753,1156.6512096801307,1162.9505634566303,1163.4502827548422,1164.5835897610523,None,0.04259259259259257,2.466888426337391,1164.5835897610523,None,1164.5835897610523,None,,,,,,,002,001,2021_Feb_04_1548,deception_task,2020.2.10,59.9756802699425,
1,Indirect,LIE,Are you from Edgefield Primary School?,,video/V28.mp4,,,,,,,,,,0,27,27,27,,,,,,1167.8498091869988,1168.3831437181216,1178.9656863815617,1179.4654550834093,1181.998264461523,1182.5316958746407,1189.197816108819,1189.6978376023471,1191.3978133497294,None,0.0009259259259259411,2.967091494007036,1191.3978133497294,None,1191.3978133497294,None,,,,,,,002,001,2021_Feb_04_1548,deception_task,2020.2.10,59.9756802699425,
20,Indirect,TRUTH,Is your house on the 5 floor of the building?,,video/V18.mp4,,,,,,,,,,0,28,28,28,,,,,,1195.14707614691,1195.6803554999642,1204.596238340484,1205.0962964056525,1208.2789655292872,1208.8123873183504,1214.9784806051757,1215.478624645155,1216.8284585338552,None,0.962037037037037,1.0490291249006987,1216.8284585338552,None,1216.8284585338552,None,,,,,,,002,001,2021_Feb_04_1548,deception_task,2020.2.10,59.9756802699425,
28,Indirect,TRUTH,Is your religion Christianity?,,video/V3.mp4,,,,,,,,,,0,29,29,29,,,,,,1220.7615222439636,1221.294618098298,1244.9252672602888,1245.4252316511702,1248.6085699675605,1249.1417258118745,1254.441283297725,1254.9409916887525,1256.0739195069764,None,0.962037037037037,2.035345317563042,1256.0739195069764,None,1256.0739195069764,None,,,,,,,002,001,2021_Feb_04_1548,deception_task,2020.2.10,59.9756802699425,
19,Indirect,LIE,Is the Cityhall station the closest MRT to your house?,,video/V11.mp4,,,,,,,,,,0,30,30,30,,,,,,1259.107513887575,1259.6406251403969,1268.0565320411697,1268.5565939559601,1271.6064084041864,1272.139551737113,1277.6057013566606,1278.1057414568495,1279.2556133926846,None,0.04999999999999999,2.267479536123574,1279.2556133926846,None,1279.2556133926846,None,,,,,,,002,001,2021_Feb_04_1548,deception_task,2020.2.10,59.9756802699425,
18,Direct,LIE,What was the last country you visited?,,video/V36.mp4,,,,,,,,,,0,31,31,31,,,,,,1282.2551710067783,1282.788577397354,1295.3701515598223,1295.8701470685191,1298.9369678697549,1299.4699283458758,1303.1365759782493,1303.6365397276822,1305.5026049120352,None,0.04999999999999999,2.0029818541370332,1305.5026049120352,None,1305.5026049120352,None,,,,,,,002,001,2021_Feb_04_1548,deception_task,2020.2.10,59.9756802699425,
21,Direct,LIE,"Which school in NTU are you from? (Eg. NBS, SSS, SOH)",,video/V40.mp4,,,,,,,,,,0,32,32,32,,,,,,1308.6360418428667,1309.1692538275383,1330.233646158129,1330.7336852960289,1333.2663669949397,1333.80000725016,1338.1661519934423,1338.66598100611,1340.1327096731402,None,0.04999999999999999,1.2660044888034463,1340.1327096731402,None,1340.1327096731402,None,,,,,,,002,001,2021_Feb_04_1548,deception_task,2020.2.10,59.9756802699425,
23,Indirect,TRUTH,Are you studying Business course in NTU?,,video/V37.mp4,,,,,,,,,,0,33,33,33,,,,,,1345.6155178963672,1346.1149799115956,1359.3471718742512,1359.847551703686,1362.6301852825563,1363.1637825502548,1369.8632392401341,1370.3629922226537,1371.862706388114,None,0.9546296296296296,2.5176001575309783,1371.862706388114,None,1371.862706388114,None,,,,,,,002,001,2021_Feb_04_1548,deception_task,2020.2.10,59.9756802699425,
3,Indirect,TRUTH,Is Yilin your closest friend back in secondary school?,,video/V8.mp4,,,,,,,,,,0,34,34,34,,,,,,1375.2126711639576,1375.7292287151795,1390.4778835927136,1390.9778245650232,1394.1777425680775,1394.710794793442,1400.1432047090493,1400.6435274358373,1402.1266802004538,None,0.9583333333333333,2.033546581165865,1402.1266802004538,None,1402.1266802004538,None,,,,,,,002,001,2021_Feb_04_1548,deception_task,2020.2.10,59.9756802699425,
13,Direct,TRUTH,What is your dream job growing up?,,video/V6.mp4,,,,,,,,,,0,35,35,35,,,,,,1405.2262455779128,1405.7594197078142,1420.10797520075,1420.6077172760852,1423.8579309300985,1424.3910178020597,1430.0236286679283,1430.5236844874453,1432.3899049400352,None,0.9472222222222222,1.9498596170451492,1432.3899049400352,None,1432.3899049400352,None,,,,,,,002,001,2021_Feb_04_1548,deception_task,2020.2.10,59.9756802699425,
29,Indirect,LIE,Do you use a Huawei phone?,,video/V9.mp4,,,,,,,,,,0,36,36,36,,,,,,1435.1567813684233,1435.6732221478596,1444.6058338477742,1445.1058091460727,1447.8383571989834,1448.3716875596438,1451.671494629234,1452.171480834717,1453.4881242325064,None,0.05555555555555558,2.7834564356599003,1453.4881242325064,None,1453.4881242325064,None,,,,,,,002,001,2021_Feb_04_1548,deception_task,2020.2.10,59.9756802699425,
3,Direct,LIE,Who is your closest friend back in secondary school?,,video/V17.mp4,,,,,,,,,,0,37,37,37,,,,,,1457.121179729933,1457.6377616622485,1462.970486220438,1463.4703534084838,1466.1031150512863,1466.6198195298202,1472.3864252013154,1472.8860460133292,1474.7194012682885,None,0.06203703703703706,6.665732063585892,1474.7194012682885,None,1474.7194012682885,None,,,,,,,002,001,2021_Feb_04_1548,deception_task,2020.2.10,59.9756802699425,
6,Indirect,TRUTH,Were you in the Taekwondo CCA during secondary school?,,video/V2.mp4,,,,,,,,,,0,38,38,38,,,,,,1482.2853799643926,1482.8186320492532,1494.317324460484,1494.8170517787803,1497.4336684218142,1497.9671322358772,1502.6332264849916,1503.1331215826795,1504.7496143961325,None,0.9611111111111111,2.5349472023081034,1504.7496143961325,None,1504.7496143961325,None,,,,,,,002,001,2021_Feb_04_1548,deception_task,2020.2.10,59.9756802699425,
16,Indirect,TRUTH,Do you have 4 siblings?,,video/V10.mp4,,,,,,,,,,0,39,39,39,,,,,,1508.0824704831466,1508.5825461924542,1516.598552284995,1517.098262279993,1520.0981429417152,1520.631084169494,1526.013893611962,1526.5137752359733,1527.5641732229851,None,0.9611111111111111,0.9814262085128576,1527.5641732229851,None,1527.5641732229851,None,,,,,,,002,001,2021_Feb_04_1548,deception_task,2020.2.10,59.9756802699425,
10,Indirect,TRUTH,Do you hate eating Pancakes the most?,,,bit/B21.mp4,,,,,,,,,,,,,0,0,0,0,,1635.0534051845316,1635.5531562422402,,,,,,,1655.7842500999104,None,0.9777777777777779,3.268191074952483,1655.7842500999104,None,1655.7842500999104,None,1642.6860965718515,1643.1855034090113,1645.0686923600733,1645.6021186404396,1653.9513670655433,1654.4512368198484,002,001,2021_Feb_04_1548,deception_task,2020.2.10,59.9756802699425,
22,Indirect,LIE,Are you in your 1st year in NTU?,,,bit/B13.mp4,,,,,,,,,,,,,0,1,1,1,,1659.8342018511612,1660.3676746478304,,,,,,,1680.1153347184882,None,0.02314814814814814,2.567155076889321,1680.1153347184882,None,1680.1153347184882,None,1666.7500718596857,1667.2499647119548,1668.8832909662742,1669.416848775465,1677.74897503783,1678.2490379151423,002,001,2021_Feb_04_1548,deception_task,2020.2.10,59.9756802699425,
3,Indirect,LIE,Is Joel your closest friend back in secondary school?,,,bit/B39.mp4,,,,,,,,,,,,,0,2,2,2,,1683.48172455444,1684.015168799786,,,,,,,1703.2295864094049,None,0.061111111111111116,4.369148732628673,1703.2295864094049,None,1703.2295864094049,None,1690.5144380128477,1691.0312319952063,1692.7976329950616,1693.3309165183455,1701.6799612343311,1702.1798139864113,002,001,2021_Feb_04_1548,deception_task,2020.2.10,59.9756802699425,
7,Direct,TRUTH,What is your favourite sport?,,,bit/B26.mp4,,,,,,,,,,,,,0,3,3,3,,1708.2793049376924,1708.7961403033696,,,,,,,1728.7770429630764,None,0.9518518518518518,2.568278204649687,1728.7770429630764,None,1728.7770429630764,None,1715.8954897813965,1716.3952276860364,1718.1951473571826,1718.7286015474238,1727.010799156269,1727.5276383715682,002,001,2021_Feb_04_1548,deception_task,2020.2.10,59.9756802699425,
20,Direct,TRUTH,Which floor of the building is your house on?,,,bit/B31.mp4,,,,,,,,,,,,,0,4,4,4,,1732.1103443233296,1732.6269968319684,,,,,,,1757.5578912789933,None,0.9518518518518518,4.067085783928633,1757.5578912789933,None,1757.5578912789933,None,1745.258872098988,1745.7586834672838,1747.1588518242352,1747.692112891702,1756.0248130687978,1756.5245830537751,002,001,2021_Feb_04_1548,deception_task,2020.2.10,59.9756802699425,
22,Indirect,TRUTH,Are you in your 3rd year in NTU?,,,bit/B29.mp4,,,,,,,,,,,,,0,5,5,5,,1762.3403654191643,1762.8401755043305,,,,,,,1779.771891525481,None,0.9518518518518518,1.549606247805059,1779.771891525481,None,1779.771891525481,None,1766.2398594503757,1766.739899229724,1768.7565231870394,1769.2735147832427,1777.605960564455,1778.1059519029222,002,001,2021_Feb_04_1548,deception_task,2020.2.10,59.9756802699425,
21,Indirect,LIE,Are you from School of Physical and Mathematical Sciences in NTU?,,,bit/B28.mp4,,,,,,,,,,,,,0,6,6,6,,1782.2716483576223,1782.7718796557747,,,,,,,1801.4867919420358,None,0.037962962962962976,2.050051199970767,1801.4867919420358,None,1801.4867919420358,None,1787.97185989446,1788.471320626326,1790.554289314663,1791.0879488179926,1799.4038396144751,1799.9033770181704,002,001,2021_Feb_04_1548,deception_task,2020.2.10,59.9756802699425,
19,Indirect,TRUTH,Is the Punggol station the closest MRT to your house?,,,bit/B25.mp4,,,,,,,,,,,,,0,7,7,7,,1804.6698190807365,1805.1865309376735,,,,,,,1822.0846801670268,None,0.9342592592592592,2.4520522984676063,1822.0846801670268,None,1822.0846801670268,None,1808.7193826616276,1809.219352506334,1810.9023119555786,1811.4188576370943,1819.7679520773236,1820.2679142227862,002,001,2021_Feb_04_1548,deception_task,2020.2.10,59.9756802699425,
15,Direct,TRUTH,Which polytechnic or junior college are you from?,,,bit/B12.mp4,,,,,,,,,,,,,0,8,8,8,,1825.5677026859485,1826.0672391271219,,,,,,,1847.5484426990151,None,0.9222222222222223,1.76626465911977,1847.5484426990151,None,1847.5484426990151,None,1834.5169736314565,1835.0168937516864,1837.0663444104139,1837.6000119338278,1845.9488936825655,1846.4486556474585,002,001,2021_Feb_04_1548,deception_task,2020.2.10,59.9756802699425,
18,Indirect,TRUTH,Was the last country you visited Taiwan?,,,bit/B20.mp4,,,,,,,,,,,,,0,9,9,9,,1850.3485837236512,1850.8816397986375,,,,,,,1865.4467545750085,None,0.9296296296296296,6.902133910451084,1865.4467545750085,None,1865.4467545750085,None,1852.2651254914235,1852.7650205891114,1854.5482094760519,1855.0811555159744,1863.3971576306503,1863.8968971394934,002,001,2021_Feb_04_1548,deception_task,2020.2.10,59.9756802699425,
20,Direct,LIE,Which floor of the building is your house on?,,,bit/B15.mp4,,,,,,,,,,,,,0,10,10,10,,1873.7462495043874,1874.279492286034,,,,,,,1889.228219151497,None,0.02407407407407408,18.383789812913164,1889.228219151497,None,1889.228219151497,None,1876.6461932999082,1877.145913560642,1878.7621247100178,1879.295894248411,1887.6281744958833,1888.1283358591609,002,001,2021_Feb_04_1548,deception_task,2020.2.10,59.9756802699425,
3,Direct,TRUTH,Who is your closest friend back in secondary school?,,,bit/B33.mp4,,,,,,,,,,,,,0,11,11,11,,1908.5762713062577,1909.0926812884863,,,,,,,1923.8746652433183,None,0.5287037037037037,7.7014658723492175,1923.8746652433183,None,1923.8746652433183,None,1909.9592876657844,1910.4592106733471,1912.6421319472138,1913.1757202325389,1921.4911262972746,1921.991154848598,002,001,2021_Feb_04_1548,deception_task,2020.2.10,59.9756802699425,
13,Direct,LIE,What is your dream job growing up?,,,bit/B3.mp4,,,,,,,,,,,,,0,12,12,12,,1932.3902886193246,1932.9073292980902,,,,,,,1954.705032869475,None,0.07222222222222224,2.5659055535215884,1954.705032869475,None,1954.705032869475,None,1942.506276169559,1943.0061122397892,1945.2058480272535,1945.7390147787519,1953.1384128902573,1953.6379785244353,002,001,2021_Feb_04_1548,deception_task,2020.2.10,59.9756802699425,
15,Direct,LIE,Which polytechnic or junior college are you from?,,,bit/B17.mp4,,,,,,,,,,,,,0,13,13,13,,1958.0378116432112,1958.537470630603,,,,,,,1983.0849868536461,None,0.07222222222222224,2.0359959041234106,1983.0849868536461,None,1983.0849868536461,None,1970.1530048877466,1970.652941368986,1972.6862290629651,1973.2196421904955,1981.485107410932,1981.985144624021,002,001,2021_Feb_04_1548,deception_task,2020.2.10,59.9756802699425,
6,Direct,LIE,What CCA (Co-curricular Activity) did you join in secondary school?,,,bit/B30.mp4,,,,,,,,,,,,,0,14,14,14,,1985.9852912304923,1986.5014718393795,,,,,,,2002.2500067369547,None,0.07222222222222224,1.633375978562981,2002.2500067369547,None,2002.2500067369547,None,1992.0509892250411,1992.550917686196,1994.4341797800735,1994.9677083962597,2000.6671352514531,2001.1669639432803,002,001,2021_Feb_04_1548,deception_task,2020.2.10,59.9756802699425,
10,Indirect,LIE,Do you hate eating Ramen the most?,,,bit/B34.mp4,,,,,,,,,,,,,0,15,15,15,,2004.6501176701859,2005.1666421787813,,,,,,,2024.4311940763146,None,0.07222222222222224,1.9159008054994047,2024.4311940763146,None,2024.4311940763146,None,2014.5155662733596,2015.0155739726033,2017.098291152157,2017.6153510792647,2022.5480769849382,2023.0480769849382,002,001,2021_Feb_04_1548,deception_task,2020.2.10,59.9756802699425,
29,Direct,LIE,What brand of handphone do you use?,,,bit/B32.mp4,,,,,,,,,,,,,0,16,16,16,,2027.0308592233341,2027.5641010424588,,,,,,,2041.7957707396708,None,0.07222222222222224,1.6332306552212685,2041.7957707396708,None,2041.7957707396708,None,2028.7808127070311,2029.2974992205855,2030.7136848981027,2031.247360441601,2039.5629673283547,2040.0631896441337,002,001,2021_Feb_04_1548,deception_task,2020.2.10,59.9756802699425,
2,Indirect,TRUTH,Are you from Edgefield Secondary School?,,,bit/B27.mp4,,,,,,,,,,,,,0,17,17,17,,2044.1289274180308,2044.6288988667075,,,,,,,2059.377764510922,None,0.9388888888888889,3.153189669828862,2059.377764510922,None,2059.377764510922,None,2045.7959949802607,2046.2958118023816,2048.1621814277023,2048.6956619236153,2057.0110638178885,2057.5109929207247,002,001,2021_Feb_04_1548,deception_task,2020.2.10,59.9756802699425,
27,Indirect,TRUTH,Do you not drink alcohol at all?,,,bit/B38.mp4,,,,,,,,,,,,,0,18,18,18,,2063.4108138489537,2063.927526347572,,,,,,,2084.4750230016652,None,0.9638888888888889,5.602137888316065,2084.4750230016652,None,2084.4750230016652,None,2071.0599232385866,2071.5598160908557,2073.3097346071154,2073.84293279727,2082.175255069742,2082.6755790796597,002,001,2021_Feb_04_1548,deception_task,2020.2.10,59.9756802699425,
5,Direct,TRUTH,What is your favourite country you visited? ,,,bit/B16.mp4,,,,,,,,,,,,,0,19,19,19,,2090.9911689639557,2091.4910521919373,,,,,,,2115.555348602822,None,0.9842592592592593,1.4818236820865422,2115.555348602822,None,2115.555348602822,None,2103.7562745655887,2104.2562572422903,2105.9396253933664,2106.4731700494885,2113.6724111603107,2114.172146498924,002,001,2021_Feb_04_1548,deception_task,2020.2.10,59.9756802699425,
13,Indirect,TRUTH,Is your dream job a Teacher when you were growing up?,,,bit/B7.mp4,,,,,,,,,,,,,0,20,20,20,,2117.6718086942565,2118.2052696212195,,,,,,,2134.9201668300666,None,0.9861111111111112,1.8649426982738078,2134.9201668300666,None,2134.9201668300666,None,2122.704680308234,2123.20477622794,2124.7041253207717,2125.2376208943315,2132.6204287325963,2133.1202538956422,002,001,2021_Feb_04_1548,deception_task,2020.2.10,59.9756802699425,
23,Direct,TRUTH,What course are you studying?,,,bit/B6.mp4,,,,,,,,,,,,,0,21,21,21,,2137.569643216906,2138.069630384911,,,,,,,2149.201965361135,None,0.987037037037037,1.5149869050364941,2149.201965361135,None,2149.201965361135,None,2139.0527372749057,2139.569699036656,2141.3525430613663,2141.8863090709783,2147.11896138452,2147.6187188583426,002,001,2021_Feb_04_1548,deception_task,2020.2.10,59.9756802699425,
21,Direct,TRUTH,"Which school in NTU are you from? (Eg. NBS, SSS, SOH)",,,bit/B19.mp4,,,,,,,,,,,,,0,22,22,22,,2151.585406462662,2152.101679141633,,,,,,,2166.6336525098886,None,0.9861111111111112,3.883496600203216,2166.6336525098886,None,2166.6336525098886,None,2155.018265180057,2155.5177714659367,2157.53437328781,2158.0678775231354,2164.7339704888873,2165.233766138088,002,001,2021_Feb_04_1548,deception_task,2020.2.10,59.9756802699425,
18,Indirect,LIE,Was the last country you visited Japan?,,,bit/B2.mp4,,,,,,,,,,,,,0,23,23,23,,2171.3333469140343,2171.8496914526913,,,,,,,2189.514952899888,None,0.1074074074074074,2.0333781600929797,2189.514952899888,None,2189.514952899888,None,2176.399295454845,2176.8994006779976,2178.815884701209,2179.3490309214685,2187.215045419289,2187.7150585721247,002,001,2021_Feb_04_1548,deception_task,2020.2.10,59.9756802699425,
5,Indirect,LIE,Is your favourite country Italy?,,,bit/B11.mp4,,,,,,,,,,,,,0,24,24,24,,2192.4478985548485,2192.9478112966754,,,,,,,2206.579811997246,None,0.10648148148148145,1.8318250295706093,2206.579811997246,None,2206.579811997246,None,2195.13074540277,2195.63090933254,2197.746919339057,2198.264175276039,2204.81330384966,2205.3129721404985,002,001,2021_Feb_04_1548,deception_task,2020.2.10,59.9756802699425,
2,Indirect,LIE,Are you from Serangoon Secondary School?,,,bit/B5.mp4,,,,,,,,,,,,,0,25,25,25,,2209.079319887096,2209.5959868319333,,,,,,,2226.7772864517756,None,0.10648148148148145,1.7336464787367731,2226.7772864517756,None,2226.7772864517756,None,2213.24566211598,2213.7458161010873,2215.695296850987,2216.2116247080266,2224.5610024163034,2225.077949742088,002,001,2021_Feb_04_1548,deception_task,2020.2.10,59.9756802699425,
1,Direct,LIE,Which primary school are you from?,,,bit/B8.mp4,,,,,,,,,,,,,0,26,26,26,,2229.0937601453625,2229.6107844635844,,,,,,,2240.526429268997,None,0.10648148148148145,1.4150628708302975,2240.526429268997,None,2240.526429268997,None,2230.6601966260932,2231.1605610570405,2233.2271005150396,2233.760381472064,2238.5933738998137,2239.0930681757163,002,001,2021_Feb_04_1548,deception_task,2020.2.10,59.9756802699425,
30,Direct,LIE,What brand of laptop do you mainly use?,,,bit/B23.mp4,,,,,,,,,,,,,0,27,27,27,,2242.559529614635,2243.0763239176013,,,,,,,2273.9059925165493,None,0.10648148148148145,3.767821190180257,2273.9059925165493,None,2273.9059925165493,None,2260.907429067651,2261.4072776490357,2262.8572213163134,2263.3741833986714,2271.6895378143527,2272.189742165152,002,001,2021_Feb_04_1548,deception_task,2020.2.10,59.9756802699425,
7,Indirect,LIE,Is your favourite sport Tennis?,,,bit/B40.mp4,,,,,,,,,,,,,0,28,28,28,,2278.472569829086,2278.9723061297555,,,,,,,2291.0046413626987,None,0.020370370370370372,2.567433853633702,2291.0046413626987,None,2291.0046413626987,None,2280.339103384409,2280.8387116850354,2282.8385140711907,2283.371974035632,2289.10488234926,2289.604873366654,002,001,2021_Feb_04_1548,deception_task,2020.2.10,59.9756802699425,
27,Indirect,LIE,Do you drink alcohol socially?,,,bit/B37.mp4,,,,,,,,,,,,,0,29,29,29,,2294.937783348374,2295.437455167994,,,,,,,2311.269411084708,None,0.020370370370370372,1.6491773996967822,2311.269411084708,None,2311.269411084708,None,2299.770279816352,2300.2703574504703,2302.003590094857,2302.536740164738,2309.6194018456154,2310.1193803518545,002,001,2021_Feb_04_1548,deception_task,2020.2.10,59.9756802699425,
28,Indirect,LIE,Is your religion Buddhism?,,,bit/B9.mp4,,,,,,,,,,,,,0,30,30,30,,2313.635859306669,2314.152183314087,,,,,,,2329.900830171304,None,0.020370370370370372,1.5486714306753129,2329.900830171304,None,2329.900830171304,None,2318.051805024268,2318.551625696011,2320.1014985302463,2320.6351358981337,2327.467689468991,2327.9677186619956,002,001,2021_Feb_04_1548,deception_task,2020.2.10,59.9756802699425,
23,Indirect,LIE,Are you studying Chemistry and Biological Chemistry in NTU?,,,bit/B24.mp4,,,,,,,,,,,,,0,31,31,31,,2332.033507443266,2332.5338548717555,,,,,,,2354.6146257461514,None,0.020370370370370372,1.3335438864305615,2354.6146257461514,None,2354.6146257461514,None,2340.982960604364,2341.4828326043207,2343.4991951079573,2344.0327201953623,2352.3482122349087,2352.8484554027673,002,001,2021_Feb_04_1548,deception_task,2020.2.10,59.9756802699425,
6,Direct,TRUTH,What CCA (Co-curricular Activity) did you join in secondary school?,,,bit/B36.mp4,,,,,,,,,,,,,0,32,32,32,,2357.0476609047037,2357.581501019653,,,,,,,2370.5469012456015,None,0.9546296296296296,1.9817178174853325,2370.5469012456015,None,2370.5469012456015,None,2359.914396244334,2360.4144684248604,2362.5144232560415,2363.0474174160045,2368.980327461846,2369.480267151259,002,001,2021_Feb_04_1548,deception_task,2020.2.10,59.9756802699425,
16,Direct,TRUTH,"How many siblings do you have? (Eg. 0, 1, 2, 3)",,,bit/B35.mp4,,,,,,,,,,,,,0,33,33,33,,2373.246586667374,2373.779622210888,,,,,,,2383.1456411997788,None,0.9546296296296296,1.4659000355750322,2383.1456411997788,None,2383.1456411997788,None,2374.546516604256,2375.0463000629097,2376.5628168722615,2377.0961882953998,2381.0289138802327,2381.528656917857,002,001,2021_Feb_04_1548,deception_task,2020.2.10,59.9756802699425,
29,Indirect,TRUTH,Do you use a Samsung phone?,,,bit/B10.mp4,,,,,,,,,,,,,0,34,34,34,,2385.2285312917084,2385.7618414417375,,,,,,,2404.1933235982433,None,0.9481481481481482,2.200459195766598,2404.1933235982433,None,2404.1933235982433,None,2391.0280473940074,2391.527909128461,2393.1944412721787,2393.7278839133214,2401.8936361875385,2402.393303836696,002,001,2021_Feb_04_1548,deception_task,2020.2.10,59.9756802699425,
30,Indirect,TRUTH,Do you use an Apple laptop?,,,bit/B14.mp4,,,,,,,,,,,,,0,35,35,35,,2407.326404759893,2407.8428503512405,,,,,,,2421.2915993519127,None,0.8694444444444445,5.850241948850453,2421.2915993519127,None,2421.2915993519127,None,2411.7259343999904,2412.2259491567966,2414.0253873043694,2414.558875820134,2419.4086894984357,2419.908453067532,002,001,2021_Feb_04_1548,deception_task,2020.2.10,59.9756802699425,
16,Indirect,LIE,Do you have 2 siblings?,,,bit/B22.mp4,,,,,,,,,,,,,0,36,36,36,,2429.8740961404983,2430.3909100126475,,,,,,,2444.7389852651395,None,0.045370370370370394,1.9840285538230091,2444.7389852651395,None,2444.7389852651395,None,2431.807285284158,2432.307219840586,2434.3233131913003,2434.8405017601326,2443.1890925411135,2443.689040892059,002,001,2021_Feb_04_1548,deception_task,2020.2.10,59.9756802699425,
19,Direct,LIE,Which MRT station is closest to your house?,,,bit/B4.mp4,,,,,,,,,,,,,0,37,37,37,,2447.522078552982,2448.0556283420883,,,,,,,2464.620317414403,None,0.04259259259259257,1.7824542503803968,2464.620317414403,None,2464.620317414403,None,2451.1385877272114,2451.638601200888,2453.505137643311,2454.0382716732565,2462.3542737879325,2462.854218609864,002,001,2021_Feb_04_1548,deception_task,2020.2.10,59.9756802699425,
1,Indirect,TRUTH,Are you from Woodlands Primary School?,,,bit/B1.mp4,,,,,,,,,,,,,0,38,38,38,,2467.0533836907707,2467.5534619665705,,,,,,,2482.0689072972164,None,0.9555555555555555,2.100134480278939,2482.0689072972164,None,2482.0689072972164,None,2469.303483780939,2469.8033708587755,2471.669625957962,2472.186743629398,2480.535515342839,2481.0357764756773,002,001,2021_Feb_04_1548,deception_task,2020.2.10,59.9756802699425,
28,Direct,TRUTH,What religion do you practice?,,,bit/B18.mp4,,,,,,,,,,,,,0,39,39,39,,2485.0854330891743,2485.618257224327,,,,,,,2499.4671152334195,None,0.950925925925926,1.566685423022136,2499.4671152334195,None,2499.4671152334195,None,2486.5846862623002,2487.085115495138,2489.084920126945,2489.6181741366163,2497.933671629755,2498.4336395496503,002,001,2021_Feb_04_1548,deception_task,2020.2.10,59.9756802699425,
