item,style,condition,question,respond,video,bitalino,trials_3.thisRepN,trials_3.thisTrialN,trials_3.thisN,trials_3.thisIndex,Trialsloop.thisRepN,Trialsloop.thisTrialN,Trialsloop.thisN,Trialsloop.thisIndex,trials_2.thisRepN,trials_2.thisTrialN,trials_2.thisN,trials_2.thisIndex,trials.thisRepN,trials.thisTrialN,trials.thisN,trials.thisIndex,IDRESPONSE.text,sensor2.started,sensor2.stopped,sensor3.started,sensor3.stopped,sensor.started,sensor.stopped,sensor4.started,sensor4.stopped,textsubjresp.started,textsubjresp.stopped,SubjectiveResponse.response,SubjectiveResponse.rt,SubjectiveResponse.started,SubjectiveResponse.stopped,textsubjcon.started,textsubjcon.stopped,sensor5.started,sensor5.stopped,sensor1.started,sensor1.stopped,sensor6.started,sensor6.stopped,participant,session,date,expName,psychopyVersion,frameRate,
1,directx,TRUTH ,What is your favourite song?,"My favourite song is "Perfect" by Ed Sheeran",,,0,0,0,0,,,,,,,,,,,,,ID 025 ,,,,,,,,,,,,,,,,,,,,,,,025,001,2021_Feb_24_1321,deception_task,2020.2.10,59.984797795181706,
2,indirectx,LIE,What is your favourite tv-show/tv-drama?,"My favourite drama is F.R.I.E.N.D.S",,,0,1,1,1,,,,,,,,,,,,,,,,,,,,,,,,,,,,,,,,,,,,025,001,2021_Feb_24_1321,deception_task,2020.2.10,59.984797795181706,
3,directx,TRUTH ,Is George Washington your role model in life?,""No, my role model is Lee Kuan Yew"",,,0,2,2,2,,,,,,,,,,,,,,,,,,,,,,,,,,,,,,,,,,,,025,001,2021_Feb_24_1321,deception_task,2020.2.10,59.984797795181706,
4,indirectx,LIE,Is MacDonalds your favourite restaurant?,""Yes, MacDonalds is my favourite restaurant"",,,0,3,3,3,,,,,,,,,,,,,,,,,,,,,,,,,,,,,,,,,,,,025,001,2021_Feb_24_1321,deception_task,2020.2.10,59.984797795181706,
5,directx,TRUTH ,Who is your favourite celebrity?,"My favourite celebrity is Chris Hemsworth",,,0,4,4,4,,,,,,,,,,,,,,,,,,,,,,,,,,,,,,,,,,,,025,001,2021_Feb_24_1321,deception_task,2020.2.10,59.984797795181706,
1,directx,TRUTH ,What is your favourite song?,"My favourite song is "Perfect" by Ed Sheeran",,,,,,,0,0,0,0,,,,,,,,,,,,,,,,,,,,,,,,,,,,,,,,025,001,2021_Feb_24_1321,deception_task,2020.2.10,59.984797795181706,
2,indirectx,LIE,What is your favourite tv-show/tv-drama?,"My favourite drama is F.R.I.E.N.D.S",,,,,,,0,1,1,1,,,,,,,,,,,,,,,,,,,,,,,,,,,,,,,,025,001,2021_Feb_24_1321,deception_task,2020.2.10,59.984797795181706,
3,directx,TRUTH ,Is George Washington your role model in life?,""No, my role model is Lee Kuan Yew"",,,,,,,0,2,2,2,,,,,,,,,,,,,,,,,,,,,,,,,,,,,,,,025,001,2021_Feb_24_1321,deception_task,2020.2.10,59.984797795181706,
4,indirectx,LIE,Is MacDonalds your favourite restaurant?,""Yes, MacDonalds is my favourite restaurant"",,,,,,,0,3,3,3,,,,,,,,,,,,,,,,,,,,,,,,,,,,,,,,025,001,2021_Feb_24_1321,deception_task,2020.2.10,59.984797795181706,
5,directx,TRUTH ,Who is your favourite celebrity?,"My favourite celebrity is Chris Hemsworth",,,,,,,0,4,4,4,,,,,,,,,,,,,,,,,,,,,,,,,,,,,,,,025,001,2021_Feb_24_1321,deception_task,2020.2.10,59.984797795181706,
19,Direct,LIE,Which MRT station is closest to your house?,,video/V38.mp4,,,,,,,,,,0,0,0,0,,,,,,427.00924647506326,427.5259916954674,443.9577179821208,444.45764259342104,449.0069604399614,449.54029272543266,455.22291084146127,455.7229887964204,456.9728806861676,None,0.35277777777777775,13.498427749611437,456.9728806861676,None,456.9728806861676,None,,,,,,,025,001,2021_Feb_24_1321,deception_task,2020.2.10,59.984797795181706,
29,Indirect,LIE,Do you use a Samsung phone?,,video/V12.mp4,,,,,,,,,,0,1,1,1,,,,,,473.05479072825983,473.5880893296562,481.40371578512713,481.90374882752076,484.71999411005527,485.2531679193489,489.35303645487875,489.85283691622317,491.38626993307844,None,0.0398148148148148,5.265899586491287,491.38626993307844,None,491.38626993307844,None,,,,,,,025,001,2021_Feb_24_1321,deception_task,2020.2.10,59.984797795181706,
23,Direct,LIE,What course are you studying?,,video/V34.mp4,,,,,,,,,,0,2,2,2,,,,,,498.50203516799957,499.03542904695496,511.75083216046914,512.2506682304665,515.2336580278352,515.7671115766279,518.3669015150517,518.8668039916083,520.0000895038247,None,0.9333333333333333,2.766000960022211,520.0000895038247,None,520.0000895038247,None,,,,,,,025,001,2021_Feb_24_1321,deception_task,2020.2.10,59.984797795181706,
12,Direct,LIE,What was your favourite subject back in secondary school?,,video/V25.mp4,,,,,,,,,,0,3,3,3,,,,,,526.6823249030858,527.1993386349641,549.0467572058551,549.5466789300554,552.7129829837941,553.2296929159202,557.2959776571952,557.7958955317736,559.5955242356285,None,0.6824074074074074,8.251313363201916,559.5955242356285,None,559.5955242356285,None,,,,,,,025,001,2021_Feb_24_1321,deception_task,2020.2.10,59.984797795181706,
12,Direct,TRUTH,What was your favourite subject back in secondary school?,,video/V6.mp4,,,,,,,,,,0,4,4,4,,,,,,571.6111604436301,572.1111386287957,600.8419636548497,601.3418555441312,604.3913556067273,604.9248053054325,608.5912245269865,609.0911077549681,610.8577875318006,None,0.662962962962963,3.368408963084221,610.8577875318006,None,610.8577875318006,None,,,,,,,025,001,2021_Feb_24_1321,deception_task,2020.2.10,59.984797795181706,
2,Indirect,LIE,Are you from Methodist Girls' Secondary School?,,video/V19.mp4,,,,,,,,,,0,5,5,5,,,,,,615.1236835895106,615.6405632258393,623.7895946605131,624.2896536882035,627.1392617323436,627.6727268295363,631.2723031146452,631.772015996743,633.0887517854571,None,0.18981481481481483,3.501491729170084,633.0887517854571,None,633.0887517854571,None,,,,,,,025,001,2021_Feb_24_1321,deception_task,2020.2.10,59.984797795181706,
21,Direct,LIE,"Which school in NTU are you from? (Eg. NBS, SSS, SOH)",,video/V4.mp4,,,,,,,,,,0,6,6,6,,,,,,638.0549209737219,638.554830507841,646.9873928041197,647.4873456461355,649.9871480325237,650.5202111648396,652.6869021053426,653.1866550878622,654.7366318618879,None,0.8129629629629629,7.03304420504719,654.7366318618879,None,654.7366318618879,None,,,,,,,025,001,2021_Feb_24_1321,deception_task,2020.2.10,59.984797795181706,
14,Direct,LIE,"What is your favourite flavour?(E.g. chocolate, vanilla, milktea; it can be a complicated flavour)",,video/V40.mp4,,,,,,,,,,0,7,7,7,,,,,,662.6693420480005,663.169218860101,672.2848374885507,672.784649498295,675.8343895203434,676.367741053924,679.0675791772082,679.567554154899,681.5838618013076,None,0.5777777777777777,3.0007019145414233,681.5838618013076,None,681.5838618013076,None,,,,,,,025,001,2021_Feb_24_1321,deception_task,2020.2.10,59.984797795181706,
16,Direct,TRUTH,"How many siblings do you have? (Eg. 0, 1, 2, 3)",,video/V39.mp4,,,,,,,,,,0,8,8,8,,,,,,685.4833564739674,685.9829647750594,690.8663462069817,691.3662198111415,694.1827275096439,694.7159471935593,696.8156152279116,697.3321346035227,698.6987820435315,None,0.9972222222222222,3.0328036034479737,698.6987820435315,None,698.6987820435315,None,,,,,,,025,001,2021_Feb_24_1321,deception_task,2020.2.10,59.984797795181706,
19,Direct,TRUTH,Which MRT station is closest to your house?,,video/V3.mp4,,,,,,,,,,0,9,9,9,,,,,,702.7485358598642,703.2649419927038,709.2979634208605,709.7974026594311,712.5805626739748,713.113762147259,715.8136862455867,716.3303772504441,717.7134459009394,None,0.9925925925925926,1.531899583991617,717.7134459009394,None,717.7134459009394,None,,,,,,,025,001,2021_Feb_24_1321,deception_task,2020.2.10,59.984797795181706,
10,Direct,TRUTH,What food do you hate the most?,,video/V2.mp4,,,,,,,,,,0,10,10,10,,,,,,720.8967190943658,721.4300279612653,747.4435905055143,747.943799989298,750.5935432836413,751.1270767115057,753.960039305035,754.4596816105768,756.4598586931825,None,0.9185185185185185,2.782486972399056,756.4598586931825,None,756.4598586931825,None,,,,,,,025,001,2021_Feb_24_1321,deception_task,2020.2.10,59.984797795181706,
13,Indirect,LIE,Is your dream job a Singer when you were growing up?,,video/V30.mp4,,,,,,,,,,0,11,11,11,,,,,,761.7259209263138,762.2425958910026,828.3025470394641,828.8192531219684,831.5522567136213,832.0856210789643,835.2185492184944,835.718476396054,836.8680012244731,None,0.003703703703703709,2.9355560201220214,836.8680012244731,None,836.8680012244731,None,,,,,,,025,001,2021_Feb_24_1321,deception_task,2020.2.10,59.984797795181706,
28,Direct,TRUTH,What religion do you practice?,,video/V32.mp4,,,,,,,,,,0,12,12,12,,,,,,841.334638142027,841.8510808460414,844.917734188959,845.4175384994596,847.9504364193417,848.4838431305252,850.5170413209125,851.0169848594815,852.2669890299439,None,0.9944444444444445,1.7655470250174403,852.2669890299439,None,852.2669890299439,None,,,,,,,025,001,2021_Feb_24_1321,deception_task,2020.2.10,59.984797795181706,
22,Direct,TRUTH,"Which year in NTU are you currently in? (Eg. 1, 2, 3, 4)",,video/V11.mp4,,,,,,,,,,0,13,13,13,,,,,,854.8331332602538,855.3665483123623,860.3662040918134,860.8825524803251,863.7989595113322,864.3320996360853,866.698348319158,867.198739697691,868.4652520157397,None,1,3.2665902730077505,868.4652520157397,None,868.4652520157397,None,,,,,,,025,001,2021_Feb_24_1321,deception_task,2020.2.10,59.984797795181706,
20,Indirect,LIE,Is your house on the 14th floor of the building?,,video/V29.mp4,,,,,,,,,,0,14,14,14,,,,,,872.9813293265179,873.5146664241329,882.1306299138814,882.6304425657727,885.5300905816257,886.063343629241,890.1629090066999,890.6629205555655,892.1794056054205,None,0.07870370370370372,3.3680159812793136,892.1794056054205,None,892.1794056054205,None,,,,,,,025,001,2021_Feb_24_1321,deception_task,2020.2.10,59.984797795181706,
3,Indirect,LIE,Is Kaitlyn your closest friend back in secondary school?,,video/V36.mp4,,,,,,,,,,0,15,15,15,,,,,,896.57897277968,897.0786064234562,924.7264598738402,925.226132013835,927.8590075415559,928.3926593456417,932.2252106708474,932.7420742670074,934.3587906793691,None,0.7296296296296296,3.9498923388309777,934.3587906793691,None,934.3587906793691,None,,,,,,,025,001,2021_Feb_24_1321,deception_task,2020.2.10,59.984797795181706,
15,Indirect,TRUTH,Are you from Singapore Polytechnic?,,video/V33.mp4,,,,,,,,,,0,16,16,16,,,,,,940.0581151987426,940.5580481514335,944.840950562153,945.3408228829503,947.9904375355691,948.523815695662,951.3234187350608,951.8234367002733,953.6231664568186,None,0.8453703703703703,1.9492311659269035,953.6231664568186,None,953.6231664568186,None,,,,,,,025,001,2021_Feb_24_1321,deception_task,2020.2.10,59.984797795181706,
21,Indirect,TRUTH,Are you from School of Humanities in NTU?,,video/V21.mp4,,,,,,,,,,0,17,17,17,,,,,,957.2725334502757,957.7726422022097,973.5546964122914,974.0545251043513,977.154144697357,977.6875186869875,979.9539880175143,980.4538131803274,982.4372350978665,None,0.9962962962962962,2.4682197542861104,982.4372350978665,None,982.4372350978665,None,,,,,,,025,001,2021_Feb_24_1321,deception_task,2020.2.10,59.984797795181706,
5,Indirect,TRUTH,Is your favourite country Australia?,,video/V15.mp4,,,,,,,,,,0,18,18,18,,,,,,985.7530094431713,986.2529728719965,1015.917323241476,1016.417282178998,1019.3001156812534,1019.8331130496226,1022.3330520973541,1022.832848708611,1023.9828165643848,None,0.9046296296296297,1.248360060621053,1023.9828165643848,None,1023.9828165643848,None,,,,,,,025,001,2021_Feb_24_1321,deception_task,2020.2.10,59.984797795181706,
13,Indirect,TRUTH,Is your dream job a Teacher when you were growing up?,,video/V13.mp4,,,,,,,,,,0,19,19,19,,,,,,1026.7994230701588,1027.3328278567642,1031.7321191406809,1032.2321470505558,1035.43165410636,1035.9653623718768,1039.2314592511393,1039.731404714752,1041.0981666813605,None,0.887962962962963,2.2332464386709034,1041.0981666813605,None,1041.0981666813605,None,,,,,,,025,001,2021_Feb_24_1321,deception_task,2020.2.10,59.984797795181706,
1,Direct,LIE,Which primary school are you from?,,video/V37.mp4,,,,,,,,,,0,20,20,20,,,,,,1044.5477141579613,1045.0641841301695,1054.5465522133745,1055.046709085349,1058.2625911561772,1058.796299742069,1061.3959889491089,1061.8958327188157,1063.1625022296794,None,0.9675925925925926,2.0497095459140837,1063.1625022296794,None,1063.1625022296794,None,,,,,,,025,001,2021_Feb_24_1321,deception_task,2020.2.10,59.984797795181706,
10,Indirect,LIE,Do you hate eating Brussel Sprouts the most?,,video/V28.mp4,,,,,,,,,,0,21,21,21,,,,,,1065.9951796298847,1066.4954792591743,1077.5940155037679,1078.094071965199,1081.2103832047433,1081.7438524723984,1084.0770803689957,1084.5767743238248,1085.9101600549184,None,0.9675925925925926,1.8641329943202436,1085.9101600549184,None,1085.9101600549184,None,,,,,,,025,001,2021_Feb_24_1321,deception_task,2020.2.10,59.984797795181706,
6,Direct,LIE,What CCA (Co-curricular Activity) did you join in secondary school?,,video/V24.mp4,,,,,,,,,,0,22,22,22,,,,,,1088.9099759142846,1089.4429819439538,1099.8253903840668,1100.3251539529301,1102.9915231293999,1103.5250706728548,1106.0577693744563,1106.5579759706743,1107.9746467010118,None,0.9675925925925926,1.6813766122795641,1107.9746467010118,None,1107.9746467010118,None,,,,,,,025,001,2021_Feb_24_1321,deception_task,2020.2.10,59.984797795181706,
15,Direct,LIE,Which polytechnic or junior college are you from?,,video/V10.mp4,,,,,,,,,,0,23,23,23,,,,,,1110.6744572352618,1111.1910285810009,1118.5402359436266,1119.0400065700524,1122.2064431151375,1122.7398703577928,1125.2394860368222,1125.7396063376218,1127.406212266069,None,0.9675925925925926,1.76536288484931,1127.406212266069,None,1127.406212266069,None,,,,,,,025,001,2021_Feb_24_1321,deception_task,2020.2.10,59.984797795181706,
2,Indirect,TRUTH,Are you from Yishun Secondary School?,,video/V31.mp4,,,,,,,,,,0,24,24,24,,,,,,1131.0723148556426,1131.6055553918704,1149.2535990774632,1149.7535172728822,1153.0031137038022,1153.536920776125,1156.2029117271304,1156.7026964691468,1157.8698066975921,None,0.8685185185185185,2.9672137196175754,1157.8698066975921,None,1157.8698066975921,None,,,,,,,025,001,2021_Feb_24_1321,deception_task,2020.2.10,59.984797795181706,
5,Direct,LIE,What is your favourite country you visited? ,,video/V16.mp4,,,,,,,,,,0,25,25,25,,,,,,1161.7861052975059,1162.3191697131842,1186.3667064676993,1186.8663279213943,1189.7665921980515,1190.2998099569231,1193.1661295373924,1193.6660605650395,1195.4324686224572,None,0.9740740740740741,5.533284807112068,1195.4324686224572,None,1195.4324686224572,None,,,,,,,025,001,2021_Feb_24_1321,deception_task,2020.2.10,59.984797795181706,
24,Direct,LIE,"How old is your mum? (Eg. 45, 52)",,video/V17.mp4,,,,,,,,,,0,26,26,26,,,,,,1201.7819249276072,1202.2986958120018,1218.4303567833267,1218.930297113955,1221.8965785834007,1222.4299474400468,1224.8626714209095,1225.3626986891031,1226.4294104175642,None,0.9740740740740741,1.4998120102100074,1226.4294104175642,None,1226.4294104175642,None,,,,,,,025,001,2021_Feb_24_1321,deception_task,2020.2.10,59.984797795181706,
20,Indirect,TRUTH,Is your house on the 8th floor of the building?,,video/V1.mp4,,,,,,,,,,0,27,27,27,,,,,,1229.229307311587,1229.7626161784865,1232.7953880229034,1233.2952507198788,1236.2283125049435,1236.7618382340297,1239.4283501668833,1239.927998888772,1241.8611893155612,None,0.9740740740740741,1.3816513470374048,1241.8611893155612,None,1241.8611893155612,None,,,,,,,025,001,2021_Feb_24_1321,deception_task,2020.2.10,59.984797795181706,
27,Indirect,LIE,Do you drink alcohol rarely?,,video/V14.mp4,,,,,,,,,,0,28,28,28,,,,,,1244.010850484483,1244.5277727874927,1263.9591805180535,1264.4589787335135,1267.6584646161646,1268.1920140846632,1270.3583409152925,1270.8583662584424,1272.1083242334425,None,0.06759259259259259,2.3502210970036685,1272.1083242334425,None,1272.1083242334425,None,,,,,,,025,001,2021_Feb_24_1321,deception_task,2020.2.10,59.984797795181706,
6,Indirect,TRUTH,Were you in the Hockey CCA during secondary school?,,video/V9.mp4,,,,,,,,,,0,29,29,29,,,,,,1275.2246049968526,1275.7412148388103,1282.290587221738,1282.7904467103072,1285.4399683307856,1285.9730564858764,1289.0730135622434,1289.572877863422,1291.0228054900654,None,0.9425925925925926,2.9008558355271816,1291.0228054900654,None,1291.0228054900654,None,,,,,,,025,001,2021_Feb_24_1321,deception_task,2020.2.10,59.984797795181706,
27,Indirect,TRUTH,Do you drink alcohol frequently?,,video/V23.mp4,,,,,,,,,,0,30,30,30,,,,,,1294.9393331427127,1295.455771035049,1302.954962934833,1303.4550193957984,1306.2213860698976,1306.7547263754532,1309.1876932033338,1309.6878099748865,1311.4878801023588,None,0.987037037037037,2.3010293254628778,1311.4878801023588,None,1311.4878801023588,None,,,,,,,025,001,2021_Feb_24_1321,deception_task,2020.2.10,59.984797795181706,
24,Indirect,TRUTH,Is your mum 54 years old this year?,,video/V5.mp4,,,,,,,,,,0,31,31,31,,,,,,1314.6705267699435,1315.203854243271,1322.7699975105934,1323.2697998969816,1326.0693971621804,1326.6029973169789,1329.3025066182017,1329.8025707788765,1331.285543252714,None,0.987037037037037,0.9984158799052238,1331.285543252714,None,1331.285543252714,None,,,,,,,025,001,2021_Feb_24_1321,deception_task,2020.2.10,59.984797795181706,
28,Direct,LIE,What religion do you practice?,,video/V26.mp4,,,,,,,,,,0,32,32,32,,,,,,1334.1685615372844,1334.6853327425197,1338.0351207563654,1338.534892345313,1341.5177297615446,1342.0508605833165,1343.6842997600324,1344.20096542174,1345.6337477881461,None,0.987037037037037,3.084426733199507,1345.6337477881461,None,1345.6337477881461,None,,,,,,,025,001,2021_Feb_24_1321,deception_task,2020.2.10,59.984797795181706,
22,Direct,LIE,"Which year in NTU are you currently in? (Eg. 1, 2, 3, 4)",,video/V7.mp4,,,,,,,,,,0,33,33,33,,,,,,1349.9003348532133,1350.4172138478607,1364.215654301457,1364.715499995742,1367.5819905633107,1368.1151919616386,1370.1818854045123,1370.6815296350978,1371.9148517833091,None,0.4666666666666667,2.750601183157414,1371.9148517833091,None,1371.9148517833091,None,,,,,,,025,001,2021_Feb_24_1321,deception_task,2020.2.10,59.984797795181706,
16,Direct,LIE,"How many siblings do you have? (Eg. 0, 1, 2, 3)",,video/V27.mp4,,,,,,,,,,0,34,34,34,,,,,,1375.514526875224,1376.031270491425,1382.8637104984373,1383.3635722324252,1386.34679814009,1386.8800630569458,1388.6798714101315,1389.179367750883,1390.229846579954,None,0.5731481481481482,2.549693184904754,1390.229846579954,None,1390.229846579954,None,,,,,,,025,001,2021_Feb_24_1321,deception_task,2020.2.10,59.984797795181706,
14,Indirect,TRUTH,Is your favourite flavour Vanilla?,,video/V8.mp4,,,,,,,,,,0,35,35,35,,,,,,1393.5462015769444,1394.0625907070935,1399.9788241842762,1400.4787911414169,1403.5283579304814,1404.0618037795648,1406.727685336955,1407.2281504999846,1408.2780416198075,None,0.6194444444444445,5.666212304495275,1408.2780416198075,None,1408.2780416198075,None,,,,,,,025,001,2021_Feb_24_1321,deception_task,2020.2.10,59.984797795181706,
3,Indirect,TRUTH,Is Amanda your closest friend back in secondary school?,,video/V20.mp4,,,,,,,,,,0,36,36,36,,,,,,1414.9274012348615,1415.4604136808775,1435.6917680297047,1436.191727929283,1439.2915130560286,1439.8248212812468,1443.557986236643,1444.0577905471437,1445.8075319807976,None,0.237962962962963,3.1666858079843223,1445.8075319807976,None,1445.8075319807976,None,,,,,,,025,001,2021_Feb_24_1321,deception_task,2020.2.10,59.984797795181706,
23,Direct,TRUTH,What course are you studying?,,video/V22.mp4,,,,,,,,,,0,37,37,37,,,,,,1450.1234792387113,1450.640240819659,1456.2730050291866,1456.772990593221,1459.889570985455,1460.4226029999554,1463.8224098132923,1464.3222693018615,1465.4221946191974,None,0.9416666666666667,1.8823025752790272,1465.4221946191974,None,1465.4221946191974,None,,,,,,,025,001,2021_Feb_24_1321,deception_task,2020.2.10,59.984797795181706,
29,Indirect,TRUTH,Do you use a Apple phone?,,video/V18.mp4,,,,,,,,,,0,38,38,38,,,,,,1468.1218579052947,1468.6552078351378,1470.8885752162896,1471.3882637172937,1474.2711485479958,1474.804442658089,1476.904220085591,1477.4042752636597,1479.0377731472254,None,0.9416666666666667,1.5326695088297129,1479.0377731472254,None,1479.0377731472254,None,,,,,,,025,001,2021_Feb_24_1321,deception_task,2020.2.10,59.984797795181706,
1,Indirect,TRUTH,Are you from Raffles Girls' Primary School?,,video/V35.mp4,,,,,,,,,,0,39,39,39,,,,,,1481.5539123723283,1482.0874188533053,1487.0533586684614,1487.5531729240902,1490.08615970565,1490.619779750239,1493.2860565357842,1493.7859070422128,1495.2358776563779,None,0.9416666666666667,0.7317832610569894,1495.2358776563779,None,1495.2358776563779,None,,,,,,,025,001,2021_Feb_24_1321,deception_task,2020.2.10,59.984797795181706,
14,Indirect,LIE,Is your favourite flavour Coffee?,,,bit/B7.mp4,,,,,,,,,,,,,0,0,0,0,,1593.0095246103592,1593.5260147931986,,,,,,,1610.6078674113378,None,0.9324074074074074,2.9669747217558324,1610.6078674113378,None,1610.6078674113378,None,1602.2754280464724,1602.7915589306504,1604.6082552610897,1605.1416792958044,1608.6411820529029,1609.1411175713874,025,001,2021_Feb_24_1321,deception_task,2020.2.10,59.984797795181706,
22,Indirect,TRUTH,Are you in your 1st year in NTU?,,,bit/B24.mp4,,,,,,,,,,,,,0,1,1,1,,1614.3404404870234,1614.8739039804786,,,,,,,1629.5724572916515,None,0.9324074074074074,0.7986698267050087,1629.5724572916515,None,1629.5724572916515,None,1618.1736250752583,1618.6733870399185,1620.539834620431,1621.0732541638426,1627.5725426250137,1628.072317101527,025,001,2021_Feb_24_1321,deception_task,2020.2.10,59.984797795181706,
24,Direct,TRUTH,"How old is your mum? (Eg. 45, 52)",,,bit/B34.mp4,,,,,,,,,,,,,0,2,2,2,,1633.2388274306431,1633.7719547236338,,,,,,,1644.3711800510064,None,0.9981481481481482,1.3816458936780691,1644.3711800510064,None,1644.3711800510064,None,1635.821786174085,1636.3216238482855,1638.4713328168727,1639.0049679391086,1642.104686981067,1642.6043700287119,025,001,2021_Feb_24_1321,deception_task,2020.2.10,59.984797795181706,
1,Direct,TRUTH,Which primary school are you from?,,,bit/B8.mp4,,,,,,,,,,,,,0,3,3,3,,1646.4707043659873,1646.9876289144158,,,,,,,1656.4699870524928,None,0.9953703703703703,1.73268503556028,1656.4699870524928,None,1656.4699870524928,None,1648.0374382296577,1648.5373650868423,1649.9702972681262,1650.5035400497727,1654.8866504044272,1655.3865487100556,025,001,2021_Feb_24_1321,deception_task,2020.2.10,59.984797795181706,
20,Direct,TRUTH,Which floor of the building is your house on?,,,bit/B15.mp4,,,,,,,,,,,,,0,4,4,4,,1658.902790592052,1659.4361892836168,,,,,,,1672.2015438275412,None,0.9731481481481481,2.6832363014109433,1672.2015438275412,None,1672.2015438275412,None,1663.4358161911368,1663.9355216948316,1665.8855054620653,1666.4188970960677,1670.518279937096,1671.018435205333,025,001,2021_Feb_24_1321,deception_task,2020.2.10,59.984797795181706,
12,Indirect,TRUTH,Was your favourite subject Math back in secondary school?,,,bit/B10.mp4,,,,,,,,,,,,,0,5,5,5,,1675.6345995175652,1676.15114616137,,,,,,,1687.899748106487,None,0.8537037037037036,2.5181022128090262,1687.899748106487,None,1687.899748106487,None,1678.7008489705622,1679.200720007997,1681.3672954603098,1681.9003929183818,1686.1170599912293,1686.616871359758,025,001,2021_Feb_24_1321,deception_task,2020.2.10,59.984797795181706,
15,Indirect,LIE,Are you from Anglo Chinese Junior College?,,,bit/B22.mp4,,,,,,,,,,,,,0,6,6,6,,1691.1496473746374,1691.6827323217876,,,,,,,1701.6319298036397,None,0.4101851851851852,4.066008530557156,1701.6319298036397,None,1701.6319298036397,None,1694.0328344008885,1694.5326361451298,1696.4489280083217,1696.9823209252208,1699.7821186915971,1700.2820481155068,025,001,2021_Feb_24_1321,deception_task,2020.2.10,59.984797795181706,
13,Direct,TRUTH,What is your dream job growing up?,,,bit/B29.mp4,,,,,,,,,,,,,0,7,7,7,,1706.6646747007035,1707.1981933717616,,,,,,,1718.3134620049968,None,0.7925925925925925,0.6322692115791142,1718.3134620049968,None,1718.3134620049968,None,1709.0980345108546,1709.5978628816083,1711.730811231304,1712.2638881583698,1716.030357168056,1716.5303930980153,025,001,2021_Feb_24_1321,deception_task,2020.2.10,59.984797795181706,
13,Direct,LIE,What is your dream job growing up?,,,bit/B26.mp4,,,,,,,,,,,,,0,8,8,8,,1721.1300191073678,1721.6630809563212,,,,,,,1734.8288293811493,None,0.7351851851851852,2.3007399616762996,1734.8288293811493,None,1734.8288293811493,None,1725.7795391231775,1726.2793764765374,1728.09587262664,1728.6294031674042,1733.1621413277462,1733.6617319844663,025,001,2021_Feb_24_1321,deception_task,2020.2.10,59.984797795181706,
6,Direct,TRUTH,What CCA (Co-curricular Activity) did you join in secondary school?,,,bit/B3.mp4,,,,,,,,,,,,,0,9,9,9,,1737.8284383234568,1738.344878461212,,,,,,,1749.6605283352546,None,0.8657407407407407,1.8140785861760378,1749.6605283352546,None,1749.6605283352546,None,1740.3614183682948,1740.8612297368236,1742.5945085766725,1743.1275851828977,1747.193851317279,1747.693859658204,025,001,2021_Feb_24_1321,deception_task,2020.2.10,59.984797795181706,
5,Indirect,LIE,Is your favourite country United Kingdom?,,,bit/B1.mp4,,,,,,,,,,,,,0,10,10,10,,1752.2600613120012,1752.7767433342524,,,,,,,1767.4082076540217,None,0.9740740740740741,1.5837841667234898,1767.4082076540217,None,1767.4082076540217,None,1755.9098819196224,1756.4098058892414,1757.8928155764006,1758.4263669694774,1765.85835920088,1766.3583008148707,025,001,2021_Feb_24_1321,deception_task,2020.2.10,59.984797795181706,
28,Indirect,LIE,Is your religion Taoism?,,,bit/B12.mp4,,,,,,,,,,,,,0,11,11,11,,1769.8251998275518,1770.341791383922,,,,,,,1785.1735237017274,None,0.0,4.951046263799071,1785.1735237017274,None,1785.1735237017274,None,1777.557856311556,1778.0576317501254,1779.4404973331839,1779.9575716960244,1783.490264623426,1783.9901690245606,025,001,2021_Feb_24_1321,deception_task,2020.2.10,59.984797795181706,
29,Direct,LIE,What brand of handphone do you use?,,,bit/B30.mp4,,,,,,,,,,,,,0,12,12,12,,1790.9394912980497,1791.439529152587,,,,,,,1803.755007397849,None,0.7148148148148148,3.2824933882802725,1803.755007397849,None,1803.755007397849,None,1797.0385793223977,1797.5386165352538,1798.905214251019,1799.4219825691544,1801.6885689925402,1802.1886353986338,025,001,2021_Feb_24_1321,deception_task,2020.2.10,59.984797795181706,
28,Indirect,TRUTH,Is your religion Christianity?,,,bit/B39.mp4,,,,,,,,,,,,,0,13,13,13,,1807.9547290699556,1808.4545208695345,,,,,,,1818.8034626082517,None,0.9962962962962962,1.416760554537177,1818.8034626082517,None,1818.8034626082517,None,1810.6373728504404,1811.1374966800213,1812.9038543715142,1813.4374683210626,1816.9702959847637,1817.4703254988417,025,001,2021_Feb_24_1321,deception_task,2020.2.10,59.984797795181706,
27,Direct,LIE,How frequently do you drink alcohol?,,,bit/B16.mp4,,,,,,,,,,,,,0,14,14,14,,1821.0699271266349,1821.5866444376297,,,,,,,1834.0352878943086,None,0.7027777777777777,1.0985984806902707,1834.0352878943086,None,1834.0352878943086,None,1826.0357732675038,1826.5527452952228,1828.3858862542547,1828.919371241238,1831.752108310815,1832.2522112880833,025,001,2021_Feb_24_1321,deception_task,2020.2.10,59.984797795181706,
3,Direct,TRUTH,Who is your closest friend back in secondary school?,,,bit/B4.mp4,,,,,,,,,,,,,0,15,15,15,,1838.6511913943104,1839.1676854267716,,,,,,,1851.883535738103,None,0.7731481481481481,0.7321598823182285,1851.883535738103,None,1851.883535738103,None,1841.3342714654282,1841.834198964294,1843.750625884626,1844.28389497241,1849.4670882862993,1849.967244837433,025,001,2021_Feb_24_1321,deception_task,2020.2.10,59.984797795181706,
3,Direct,LIE,Who is your closest friend back in secondary school?,,,bit/B17.mp4,,,,,,,,,,,,,0,16,16,16,,1855.5499106887728,1856.0829914654605,,,,,,,1868.0317314839922,None,0.5092592592592593,1.981160584371537,1868.0317314839922,None,1868.0317314839922,None,1858.7328566648066,1859.2325573563576,1861.0656354380772,1861.599343703594,1865.5655318191275,1866.0653839297593,025,001,2021_Feb_24_1321,deception_task,2020.2.10,59.984797795181706,
23,Indirect,TRUTH,Are you studying Linguistics and Multilingual Studies course in NTU?,,,bit/B6.mp4,,,,,,,,,,,,,0,17,17,17,,1871.064672711771,1871.598262921907,,,,,,,1883.6636048262008,None,0.8472222222222222,1.098936926573515,1883.6636048262008,None,1883.6636048262008,None,1874.5980309820734,1875.0978943202645,1876.597573839128,1877.1309757386334,1881.263935316354,1881.780361017678,025,001,2021_Feb_24_1321,deception_task,2020.2.10,59.984797795181706,
14,Direct,TRUTH,"What is your favourite flavour?(E.g. chocolate, vanilla, milktea; it can be a complicated flavour)",,,bit/B37.mp4,,,,,,,,,,,,,0,18,18,18,,1886.0630921204574,1886.5631736041978,,,,,,,1896.1458785934374,None,0.9935185185185185,2.1335357376374304,1896.1458785934374,None,1896.1458785934374,None,1888.7467570132576,1889.2461965722032,1890.8127472582273,1891.346138571389,1893.7461311286315,1894.2458112891763,025,001,2021_Feb_24_1321,deception_task,2020.2.10,59.984797795181706,
20,Direct,LIE,Which floor of the building is your house on?,,,bit/B23.mp4,,,,,,,,,,,,,0,19,19,19,,1899.0119004696608,1899.528846832458,,,,,,,1910.5938910329714,None,0.4148148148148148,3.452378232963383,1910.5938910329714,None,1910.5938910329714,None,1903.4286315105855,1903.9282513600774,1905.6447782428004,1906.1783219366334,1908.8111535143107,1909.311082616914,025,001,2021_Feb_24_1321,deception_task,2020.2.10,59.984797795181706,
6,Indirect,LIE,Were you in the Choir CCA during secondary school?,,,bit/B33.mp4,,,,,,,,,,,,,0,20,20,20,,1915.626926576253,1916.1437090095133,,,,,,,1927.3925197967328,None,0.22037037037037038,1.5983707113191485,1927.3925197967328,None,1927.3925197967328,None,1919.2268457985483,1919.7268567057326,1921.7765803667717,1922.309803900309,1925.4094979194924,1925.9096852676012,025,001,2021_Feb_24_1321,deception_task,2020.2.10,59.984797795181706,
29,Direct,TRUTH,What brand of handphone do you use?,,,bit/B20.mp4,,,,,,,,,,,,,0,21,21,21,,1929.8258475270122,1930.3593203234486,,,,,,,1939.1415099124424,None,0.13240740740740742,1.8317907038144767,1939.1415099124424,None,1939.1415099124424,None,1932.1589387618005,1932.658755262848,1934.5085586756468,1935.041807552334,1937.608475331217,1938.1083351406269,025,001,2021_Feb_24_1321,deception_task,2020.2.10,59.984797795181706,
16,Indirect,TRUTH,Do you have 0 siblings?,,,bit/B14.mp4,,,,,,,,,,,,,0,22,22,22,,1941.67465228308,1942.1912201000378,,,,,,,1950.3234334923327,None,0.8361111111111111,0.8315000566653907,1950.3234334923327,None,1950.3234334923327,None,1943.6743712602183,1944.1741928947158,1945.723699693568,1946.2571330317296,1948.240323009435,1948.7405061870813,025,001,2021_Feb_24_1321,deception_task,2020.2.10,59.984797795181706,
19,Indirect,TRUTH,Is the Queenstown station the closest MRT to your house?,,,bit/B38.mp4,,,,,,,,,,,,,0,23,23,23,,1953.4231271906756,1953.9567392151803,,,,,,,1965.4390874085948,None,1,1.215173419099301,1965.4390874085948,None,1965.4390874085948,None,1957.2729168087244,1957.7726938510314,1959.4060390326194,1959.9392683408223,1963.1390092610382,1963.6390477572568,025,001,2021_Feb_24_1321,deception_task,2020.2.10,59.984797795181706,
2,Direct,LIE,Which secondary school did you attend?,,,bit/B19.mp4,,,,,,,,,,,,,0,24,24,24,,1968.6384080783464,1969.1717394012958,,,,,,,2002.5348153528757,None,0.637962962962963,5.282854611519724,2002.5348153528757,None,2002.5348153528757,None,1993.719389719423,1994.2194635039195,1996.385715908371,1996.9189298176207,2000.4521081182174,2000.9519034465775,025,001,2021_Feb_24_1321,deception_task,2020.2.10,59.984797795181706,
2,Direct,TRUTH,Which secondary school did you attend?,,,bit/B18.mp4,,,,,,,,,,,,,0,25,25,25,,2008.584584247321,2009.117910437286,,,,,,,2018.9002389335074,None,0.712037037037037,4.3168070069514215,2018.9002389335074,None,2018.9002389335074,None,2011.384050946217,2011.8839595173486,2013.6837874394841,2014.2007373315282,2017.3334842175245,2017.8335403576493,025,001,2021_Feb_24_1321,deception_task,2020.2.10,59.984797795181706,
21,Indirect,LIE,Are you from Nanyang Business School in NTU?,,,bit/B36.mp4,,,,,,,,,,,,,0,26,26,26,,2023.9994908873923,2024.5163410101086,,,,,,,2034.6985568404198,None,0.9185185185185185,2.099907031748444,2034.6985568404198,None,2034.6985568404198,None,2027.0660572927445,2027.5659254430793,2029.6653955425136,2030.1991413417272,2032.6322169215418,2033.1319978134707,025,001,2021_Feb_24_1321,deception_task,2020.2.10,59.984797795181706,
22,Indirect,LIE,Are you in your 2nd year in NTU?,,,bit/B9.mp4,,,,,,,,,,,,,0,27,27,27,,2037.464551384095,2037.9983183564618,,,,,,,2046.3807983351871,None,0.9185185185185185,1.4816992110572755,2046.3807983351871,None,2046.3807983351871,None,2039.1483378610574,2039.648119395133,2041.1643510116264,2041.6979065751657,2044.2976718121208,2044.7975438120775,025,001,2021_Feb_24_1321,deception_task,2020.2.10,59.984797795181706,
24,Indirect,LIE,Is your mum 46 years old this year?,,,bit/B31.mp4,,,,,,,,,,,,,0,28,28,28,,2048.9472707454115,2049.48051448958,,,,,,,2059.912893287372,None,0.30648148148148147,2.583626974374056,2059.912893287372,None,2059.912893287372,None,2051.4965209029615,2051.9969767625444,2053.863163851667,2054.396187846549,2057.6294753476977,2058.12936980417,025,001,2021_Feb_24_1321,deception_task,2020.2.10,59.984797795181706,
10,Indirect,TRUTH,Do you hate eating Sushi the most?,,,bit/B27.mp4,,,,,,,,,,,,,0,29,29,29,,2063.2125110840425,2063.7292585498653,,,,,,,2074.827965782024,None,0.8009259259259259,2.8827520185150206,2074.827965782024,None,2074.827965782024,None,2066.711942302063,2067.2119291489944,2069.028162883129,2069.545021025464,2072.778262331616,2073.278017238714,025,001,2021_Feb_24_1321,deception_task,2020.2.10,59.984797795181706,
19,Indirect,LIE,Is the Hillview station the closest MRT to your house?,,,bit/B2.mp4,,,,,,,,,,,,,0,30,30,30,,2078.377557273023,2078.910924846772,,,,,,,2091.1762803527527,None,0.9796296296296296,1.4142807554453611,2091.1762803527527,None,2091.1762803527527,None,2082.043551431969,2082.5435559228063,2084.060286707245,2084.5934778400697,2088.8098022965714,2089.309754496906,025,001,2021_Feb_24_1321,deception_task,2020.2.10,59.984797795181706,
23,Indirect,LIE,Are you studying Sociology course in NTU?,,,bit/B21.mp4,,,,,,,,,,,,,0,31,31,31,,2094.2927221585996,2094.7926563941874,,,,,,,2104.1084766145796,None,0.875,0.9658323461189866,2104.1084766145796,None,2104.1084766145796,None,2096.6753243631683,2097.175253144931,2098.8420345517807,2099.3756863558665,2102.575098775327,2103.074943827931,025,001,2021_Feb_24_1321,deception_task,2020.2.10,59.984797795181706,
10,Direct,LIE,What food do you hate the most?,,,bit/B5.mp4,,,,,,,,,,,,,0,32,32,32,,2106.8081739055924,2107.341511324048,,,,,,,2118.8070113193244,None,0.687962962962963,0.6489441767334938,2118.8070113193244,None,2118.8070113193244,None,2110.624451589305,2111.1241218047217,2113.173934007529,2113.7072832952254,2116.340292276349,2116.840239023324,025,001,2021_Feb_24_1321,deception_task,2020.2.10,59.984797795181706,
12,Indirect,LIE,Was your favourite subject Chemistry back in secondary school?,,,bit/B28.mp4,,,,,,,,,,,,,0,33,33,33,,2121.389600819908,2121.906492325943,,,,,,,2134.7385107991286,None,0.9444444444444444,1.2982925637625158,2134.7385107991286,None,2134.7385107991286,None,2125.089794712607,2125.5892342715524,2127.5388520038687,2128.0725156776607,2132.655269108247,2133.1721182684414,025,001,2021_Feb_24_1321,deception_task,2020.2.10,59.984797795181706,
15,Direct,TRUTH,Which polytechnic or junior college are you from?,,,bit/B11.mp4,,,,,,,,,,,,,0,34,34,34,,2137.604890048504,2138.121540632099,,,,,,,2149.070355718024,None,0.9925925925925926,0.7989264680072665,2149.070355718024,None,2149.070355718024,None,2141.7379827587865,2142.2377261174843,2143.7209334182553,2144.25429585902,2147.0205508940853,2147.5205733501352,025,001,2021_Feb_24_1321,deception_task,2020.2.10,59.984797795181706,
21,Direct,TRUTH,"Which school in NTU are you from? (Eg. NBS, SSS, SOH)",,,bit/B35.mp4,,,,,,,,,,,,,0,35,35,35,,2152.7530011022463,2153.2867183503695,,,,,,,2162.952349681873,None,0.9925925925925926,2.166514499578625,2162.952349681873,None,2162.952349681873,None,2154.8866253816523,2155.3864864744246,2157.0192850097083,2157.5525922724046,2161.352509697899,2161.8524291766807,025,001,2021_Feb_24_1321,deception_task,2020.2.10,59.984797795181706,
1,Indirect,LIE,Are you from Punggol Primary School?,,,bit/B32.mp4,,,,,,,,,,,,,0,36,36,36,,2165.935473253485,2166.4521199879237,,,,,,,2175.601165216882,None,0.674074074074074,2.366970167029649,2175.601165216882,None,2175.601165216882,None,2167.6187002519146,2168.1185639109462,2169.534851282835,2170.051791229751,2173.351418009028,2173.851265627891,025,001,2021_Feb_24_1321,deception_task,2020.2.10,59.984797795181706,
16,Indirect,LIE,Do you have 2 siblings?,,,bit/B13.mp4,,,,,,,,,,,,,0,37,37,37,,2178.8339076759294,2179.350435713306,,,,,,,2187.2666740026325,None,0.29907407407407405,4.2988719320856035,2187.2666740026325,None,2187.2666740026325,None,2180.267211987637,2180.767257541418,2182.8506018887274,2183.3835530616343,2185.316808290314,2185.816435518209,025,001,2021_Feb_24_1321,deception_task,2020.2.10,59.984797795181706,
27,Direct,TRUTH,How frequently do you drink alcohol?,,,bit/B40.mp4,,,,,,,,,,,,,0,38,38,38,,2192.2491408926435,2192.7489894740283,,,,,,,2201.4651621910743,None,0.7481481481481481,1.8312870445661247,2201.4651621910743,None,2201.4651621910743,None,2194.482481326442,2194.9825592814013,2196.7819730476476,2197.315756380558,2199.915493708104,2200.415285186842,025,001,2021_Feb_24_1321,deception_task,2020.2.10,59.984797795181706,
5,Direct,TRUTH,What is your favourite country you visited? ,,,bit/B25.mp4,,,,,,,,,,,,,0,39,39,39,,2204.2151153539307,2204.748312581796,,,,,,,2215.0636397292838,None,0.09259259259259262,2.3173190066590905,2215.0636397292838,None,2215.0636397292838,None,2205.898191254586,2206.3981870841235,2208.530969258398,2209.0645873784088,2212.7975290552713,2213.29736576695,025,001,2021_Feb_24_1321,deception_task,2020.2.10,59.984797795181706,
