item,style,condition,question,respond,video,bitalino,trials_3.thisRepN,trials_3.thisTrialN,trials_3.thisN,trials_3.thisIndex,Trialsloop.thisRepN,Trialsloop.thisTrialN,Trialsloop.thisN,Trialsloop.thisIndex,trials_2.thisRepN,trials_2.thisTrialN,trials_2.thisN,trials_2.thisIndex,trials.thisRepN,trials.thisTrialN,trials.thisN,trials.thisIndex,IDRESPONSE.text,sensor2.started,sensor2.stopped,sensor3.started,sensor3.stopped,sensor.started,sensor.stopped,sensor4.started,sensor4.stopped,textsubjresp.started,textsubjresp.stopped,SubjectiveResponse.response,SubjectiveResponse.rt,SubjectiveResponse.started,SubjectiveResponse.stopped,textsubjcon.started,textsubjcon.stopped,sensor5.started,sensor5.stopped,sensor1.started,sensor1.stopped,sensor6.started,sensor6.stopped,participant,session,date,expName,psychopyVersion,frameRate,
1,directx,TRUTH ,What is your favourite song?,"My favourite song is "Perfect" by Ed Sheeran",,,0,0,0,0,,,,,,,,,,,,,ID 005,,,,,,,,,,,,,,,,,,,,,,,005,001,2021_Feb_10_1409,deception_task,2020.2.10,59.977642036052266,
2,indirectx,LIE,What is your favourite tv-show/tv-drama?,"My favourite drama is F.R.I.E.N.D.S",,,0,1,1,1,,,,,,,,,,,,,,,,,,,,,,,,,,,,,,,,,,,,005,001,2021_Feb_10_1409,deception_task,2020.2.10,59.977642036052266,
3,directx,TRUTH ,Is George Washington your role model in life?,""No, my role model is Lee Kuan Yew"",,,0,2,2,2,,,,,,,,,,,,,,,,,,,,,,,,,,,,,,,,,,,,005,001,2021_Feb_10_1409,deception_task,2020.2.10,59.977642036052266,
4,indirectx,LIE,Is MacDonalds your favourite restaurant?,""Yes, MacDonalds is my favourite restaurant"",,,0,3,3,3,,,,,,,,,,,,,,,,,,,,,,,,,,,,,,,,,,,,005,001,2021_Feb_10_1409,deception_task,2020.2.10,59.977642036052266,
5,directx,TRUTH ,Who is your favourite celebrity?,"My favourite celebrity is Chris Hemsworth",,,0,4,4,4,,,,,,,,,,,,,,,,,,,,,,,,,,,,,,,,,,,,005,001,2021_Feb_10_1409,deception_task,2020.2.10,59.977642036052266,
1,directx,TRUTH ,What is your favourite song?,"My favourite song is "Perfect" by Ed Sheeran",,,,,,,0,0,0,0,,,,,,,,,,,,,,,,,,,,,,,,,,,,,,,,005,001,2021_Feb_10_1409,deception_task,2020.2.10,59.977642036052266,
2,indirectx,LIE,What is your favourite tv-show/tv-drama?,"My favourite drama is F.R.I.E.N.D.S",,,,,,,0,1,1,1,,,,,,,,,,,,,,,,,,,,,,,,,,,,,,,,005,001,2021_Feb_10_1409,deception_task,2020.2.10,59.977642036052266,
3,directx,TRUTH ,Is George Washington your role model in life?,""No, my role model is Lee Kuan Yew"",,,,,,,0,2,2,2,,,,,,,,,,,,,,,,,,,,,,,,,,,,,,,,005,001,2021_Feb_10_1409,deception_task,2020.2.10,59.977642036052266,
4,indirectx,LIE,Is MacDonalds your favourite restaurant?,""Yes, MacDonalds is my favourite restaurant"",,,,,,,0,3,3,3,,,,,,,,,,,,,,,,,,,,,,,,,,,,,,,,005,001,2021_Feb_10_1409,deception_task,2020.2.10,59.977642036052266,
5,directx,TRUTH ,Who is your favourite celebrity?,"My favourite celebrity is Chris Hemsworth",,,,,,,0,4,4,4,,,,,,,,,,,,,,,,,,,,,,,,,,,,,,,,005,001,2021_Feb_10_1409,deception_task,2020.2.10,59.977642036052266,
23,Direct,LIE,What course are you studying?,,video/V10.mp4,,,,,,,,,,0,0,0,0,,,,,,319.671822167933,320.1715902280994,330.6206292337738,331.12046145438217,335.48679162119515,336.0196308339946,339.15311620594,339.65297248680145,341.45254922052845,None,0.3666666666666667,5.601464204257354,341.45254922052845,None,341.45254922052845,None,,,,,,,005,001,2021_Feb_10_1409,deception_task,2020.2.10,59.977642036052266,
21,Indirect,LIE,Are you from School of Biological Sciences in NTU?,,video/V1.mp4,,,,,,,,,,0,1,1,1,,,,,,348.68554447148927,349.20182260428555,357.9176873515826,358.41780027374625,361.68399916845374,362.2175999651663,366.45027922606096,366.95036744652316,368.9168144494761,None,0.9740740740740741,3.1002121141646057,368.9168144494761,None,368.9168144494761,None,,,,,,,005,001,2021_Feb_10_1409,deception_task,2020.2.10,59.977642036052266,
28,Indirect,TRUTH,Is your religion Buddhism?,,video/V7.mp4,,,,,,,,,,0,2,2,2,,,,,,373.44970563217066,373.9662737697363,380.0655950170476,380.56560624507256,383.39885274809785,383.93171505862847,386.7649095915258,387.2648730201181,388.8314904330764,None,0.9879629629629629,3.1499437955208123,388.8314904330764,None,388.8314904330764,None,,,,,,,005,001,2021_Feb_10_1409,deception_task,2020.2.10,59.977642036052266,
16,Indirect,TRUTH,Do you have 1 sibling?,,video/V25.mp4,,,,,,,,,,0,3,3,3,,,,,,393.2642994262278,393.78102604020387,398.263970925007,398.7638474162668,401.5131666746456,402.0302897996735,404.49659115844406,405.01299087516963,406.2628715366591,None,0.9814814814814814,2.7679434155579656,406.2628715366591,None,406.2628715366591,None,,,,,,,005,001,2021_Feb_10_1409,deception_task,2020.2.10,59.977642036052266,
27,Direct,LIE,How frequently do you drink alcohol?,,video/V21.mp4,,,,,,,,,,0,4,4,4,,,,,,410.0794847791549,410.5958004456479,420.49505772511475,420.99483508849517,423.82781596737914,424.36120631801896,426.8942434655037,427.3939666135702,428.69412720692344,None,0.5314814814814814,6.449812138220295,428.69412720692344,None,428.69412720692344,None,,,,,,,005,001,2021_Feb_10_1409,deception_task,2020.2.10,59.977642036052266,
15,Direct,TRUTH,Which polytechnic or junior college are you from?,,video/V9.mp4,,,,,,,,,,0,5,5,5,,,,,,436.01025764248334,436.52692683273926,441.0429457575083,441.54268847429194,444.7759384419769,445.3093919905368,447.5090171012562,448.0088631163817,449.70890462817624,None,0.8555555555555556,5.299558127298951,449.70890462817624,None,449.70890462817624,None,,,,,,,005,001,2021_Feb_10_1409,deception_task,2020.2.10,59.977642036052266,
18,Direct,LIE,What was the last country you visited?,,video/V24.mp4,,,,,,,,,,0,6,6,6,,,,,,456.04139885050245,456.5745922285132,462.4076023004018,462.90741078183055,465.4738296181895,466.0070367907174,469.27352151996456,469.7733534197323,470.8402669329662,None,0.7175925925925926,3.2335094965528697,470.8402669329662,None,470.8402669329662,None,,,,,,,005,001,2021_Feb_10_1409,deception_task,2020.2.10,59.977642036052266,
13,Direct,LIE,What is your dream job growing up?,,video/V6.mp4,,,,,,,,,,0,7,7,7,,,,,,475.2063792750705,475.72283737780526,482.57225262001157,483.07211724156514,485.97186181903817,486.50499360309914,490.5045849015005,491.00429778383113,492.5212072546128,None,0.28703703703703703,1.3316989543382078,492.5212072546128,None,492.5212072546128,None,,,,,,,005,001,2021_Feb_10_1409,deception_task,2020.2.10,59.977642036052266,
1,Indirect,TRUTH,Are you from Raffles Girls Primary School?,,video/V26.mp4,,,,,,,,,,0,8,8,8,,,,,,495.1040514719207,495.6208967824932,499.78726884606294,500.28705134242773,502.9702292578295,503.4868817664683,505.95323124551214,506.45308399759233,507.7361570748035,None,0.9212962962962963,2.333280187100172,507.7361570748035,None,507.7361570748035,None,,,,,,,005,001,2021_Feb_10_1409,deception_task,2020.2.10,59.977642036052266,
18,Direct,TRUTH,What was the last country you visited?,,video/V11.mp4,,,,,,,,,,0,9,9,9,,,,,,511.08604068798013,511.6193995999638,515.352181517519,515.8520807856694,518.701940338593,519.2352864183486,522.4682483058423,522.968082130421,524.7681317264214,None,0.9018518518518519,2.717387915123254,524.7681317264214,None,524.7681317264214,None,,,,,,,005,001,2021_Feb_10_1409,deception_task,2020.2.10,59.977642036052266,
30,Indirect,LIE,Do you use a Apple laptop?,,video/V39.mp4,,,,,,,,,,0,10,10,10,,,,,,528.4340986171737,528.9509243587963,535.8504989112262,536.3501874124631,539.3998684070539,539.933172140969,542.7326927345712,543.2326125341933,544.6993768101092,None,0.1925925925925926,2.1827541361562908,544.6993768101092,None,544.6993768101092,None,,,,,,,005,001,2021_Feb_10_1409,deception_task,2020.2.10,59.977642036052266,
22,Direct,TRUTH,"Which year in NTU are you currently in? (Eg. 1, 2, 3, 4)",,video/V30.mp4,,,,,,,,,,0,11,11,11,,,,,,547.8490209765732,548.3821181140374,556.281595142791,556.7812676040921,559.6642518835142,560.1976464043837,562.6976281185634,563.1973586450331,564.9807425795589,None,0.5592592592592592,3.749934235587716,564.9807425795589,None,564.9807425795589,None,,,,,,,005,001,2021_Feb_10_1409,deception_task,2020.2.10,59.977642036052266,
14,Indirect,LIE,Is your favourite flavour Vanilla?,,video/V18.mp4,,,,,,,,,,0,12,12,12,,,,,,571.5132635566406,572.0299568071496,578.2295286648441,578.7292941587511,581.7287776675075,582.2621484491974,585.6287391071673,586.128630676074,587.4948755095247,None,0.4305555555555556,1.4650313039310277,587.4948755095247,None,587.4948755095247,None,,,,,,,005,001,2021_Feb_10_1409,deception_task,2020.2.10,59.977642036052266,
23,Indirect,TRUTH,Are you studying Linguistics course in NTU?,,video/V17.mp4,,,,,,,,,,0,13,13,13,,,,,,590.1280262852088,590.6444349843077,596.5440178776626,597.0441840530839,600.2773397048004,600.8104076494928,604.5434474917129,605.0432835619431,606.4932965224143,None,0.85,3.4668778399936855,606.4932965224143,None,606.4932965224143,None,,,,,,,005,001,2021_Feb_10_1409,deception_task,2020.2.10,59.977642036052266,
29,Direct,TRUTH,What brand of handphone do you use?,,video/V8.mp4,,,,,,,,,,0,14,14,14,,,,,,611.0090886401013,611.5090087603312,616.6922126607969,617.192069262499,619.8919911149424,620.4249464580789,622.5247649482917,623.0248072941322,625.0082218332682,None,0.9074074074074074,3.250469333259389,625.0082218332682,None,625.0082218332682,None,,,,,,,005,001,2021_Feb_10_1409,deception_task,2020.2.10,59.977642036052266,
30,Direct,TRUTH,What brand of laptop do you mainly use?,,video/V19.mp4,,,,,,,,,,0,15,15,15,,,,,,629.5241133996751,630.0408550910652,635.4236346988473,635.9233283330686,638.6068446945865,639.1400210701395,642.406338019995,642.9061060801614,643.9727706508711,None,0.8685185185185185,2.4162155122030526,643.9727706508711,None,643.9727706508711,None,,,,,,,005,001,2021_Feb_10_1409,deception_task,2020.2.10,59.977642036052266,
10,Indirect,LIE,Do you hate eating Fish the most?,,video/V27.mp4,,,,,,,,,,0,16,16,16,,,,,,647.422403461067,647.9222722530831,657.4381163406651,657.9380332529545,661.2208865811117,661.75407001446,665.1873281302396,665.6874083308503,667.6201669580769,None,0.874074074074074,2.568370274733752,667.6201669580769,None,667.6201669580769,None,,,,,,,005,001,2021_Feb_10_1409,deception_task,2020.2.10,59.977642036052266,
1,Direct,LIE,Which primary school are you from?,,video/V23.mp4,,,,,,,,,,0,17,17,17,,,,,,671.1364081986248,671.6362866146956,675.2863664303441,675.8028466682881,678.5689801191911,679.1026704194956,681.83579527447,682.3354558660649,683.952190564014,None,0.7212962962962963,1.7316902284510434,683.952190564014,None,683.952190564014,None,,,,,,,005,001,2021_Feb_10_1409,deception_task,2020.2.10,59.977642036052266,
7,Direct,LIE,What is your favourite sport?,,video/V28.mp4,,,,,,,,,,0,18,18,18,,,,,,687.4016716347542,687.9015965671279,692.7512639595661,693.2513605209533,695.8340488285758,696.367706727935,698.9672323260456,699.4672810880002,701.1333872065879,None,0.3388888888888889,1.8343106030952185,701.1333872065879,None,701.1333872065879,None,,,,,,,005,001,2021_Feb_10_1409,deception_task,2020.2.10,59.977642036052266,
27,Direct,TRUTH,How frequently do you drink alcohol?,,video/V22.mp4,,,,,,,,,,0,19,19,19,,,,,,703.9835852056276,704.5003554485738,710.6658350410871,711.1659931964241,714.2660927092656,714.7991641825065,718.0988990718033,718.59885095153,719.6986264542211,None,0.9796296296296296,1.8150887915398926,719.6986264542211,None,719.6986264542211,None,,,,,,,005,001,2021_Feb_10_1409,deception_task,2020.2.10,59.977642036052266,
15,Indirect,LIE,Are you from Eunoia Junior College?,,video/V5.mp4,,,,,,,,,,0,20,20,20,,,,,,722.5147783835419,723.0484792704228,728.7474011832383,729.2476960003842,731.930537073873,732.4638382412959,735.1303604401182,735.6304971019272,737.5302294888534,None,0.15000000000000002,2.6663268303964287,737.5302294888534,None,737.5302294888534,None,,,,,,,005,001,2021_Feb_10_1409,deception_task,2020.2.10,59.977642036052266,
16,Indirect,LIE,Do you have 3 siblings?,,video/V31.mp4,,,,,,,,,,0,21,21,21,,,,,,741.0461887444835,741.5630857041106,754.2449788078666,754.7615732513368,757.3947474453598,757.9283075002022,760.4612990939058,760.9608223822434,762.1941785351373,None,0.35,3.7662608094979078,762.1941785351373,None,762.1941785351373,None,,,,,,,005,001,2021_Feb_10_1409,deception_task,2020.2.10,59.977642036052266,
7,Direct,TRUTH,What is your favourite sport?,,video/V3.mp4,,,,,,,,,,0,22,22,22,,,,,,766.9437919689808,767.4606796253938,771.0270522662904,771.5266624919605,774.7267283846159,775.2597777226474,778.1927166406531,778.7095006781165,779.8259450504556,None,0.9407407407407408,2.3503843848593533,779.8259450504556,None,779.8259450504556,None,,,,,,,005,001,2021_Feb_10_1409,deception_task,2020.2.10,59.977642036052266,
29,Direct,LIE,What brand of handphone do you use?,,video/V40.mp4,,,,,,,,,,0,23,23,23,,,,,,783.1420145335142,783.6591360545717,788.0087550061289,788.5084890613798,791.0909836045466,791.6243142858148,793.624437794555,794.1243229473475,795.4743088963442,None,0.2861111111111111,2.1508664218708873,795.4743088963442,None,795.4743088963442,None,,,,,,,005,001,2021_Feb_10_1409,deception_task,2020.2.10,59.977642036052266,
14,Direct,TRUTH,"What is your favourite flavour?(E.g. chocolate, vanilla, milktea; it can be a complicated flavour)",,video/V2.mp4,,,,,,,,,,0,24,24,24,,,,,,798.5573125521187,799.0575063165743,808.1731974459253,808.6730245335493,811.5561968029942,812.0895319755655,815.0557746277191,815.5723113266286,817.2222025108058,None,0.7351851851851852,3.182732642395422,817.2222025108058,None,817.2222025108058,None,,,,,,,005,001,2021_Feb_10_1409,deception_task,2020.2.10,59.977642036052266,
6,Indirect,TRUTH,Were you in the Netball CCA during secondary school?,,video/V36.mp4,,,,,,,,,,0,25,25,25,,,,,,823.4714893680066,823.9883382073604,835.8537556927186,836.3533906200901,839.4033911332954,839.9367846918758,843.6696323738433,844.169632694684,846.1195680208039,None,0.6259259259259259,2.5009771627373993,846.1195680208039,None,846.1195680208039,None,,,,,,,005,001,2021_Feb_10_1409,deception_task,2020.2.10,59.977642036052266,
3,Direct,LIE,Who is your closest friend back in secondary school?,,video/V15.mp4,,,,,,,,,,0,26,26,26,,,,,,849.7522051925771,850.2689699819311,855.3018826583866,855.8017145581543,858.6513319055084,859.1844255141914,862.0843012996484,862.5843474951107,863.967666371027,None,0.6925925925925926,2.267163225216791,863.967666371027,None,863.967666371027,None,,,,,,,005,001,2021_Feb_10_1409,deception_task,2020.2.10,59.977642036052266,
20,Indirect,LIE,Is your house on the 16th floor of the building?,,video/V16.mp4,,,,,,,,,,0,27,27,27,,,,,,867.0336652777623,867.5507919315714,886.7487543260213,887.2487084513996,890.0316362055019,890.56476221513,893.0982061396353,893.5980819892138,895.3644740066957,None,0.7,2.0329665711615235,895.3644740066957,None,895.3644740066957,None,,,,,,,005,001,2021_Feb_10_1409,deception_task,2020.2.10,59.977642036052266,
21,Direct,TRUTH,"Which school in NTU are you from? (Eg. NBS, SSS, SOH)",,video/V35.mp4,,,,,,,,,,0,28,28,28,,,,,,898.214036176214,898.7308641634881,903.8970780717209,904.396892968798,907.4798789806664,907.9965080707334,910.7790659400634,911.2791573686991,912.3289923481643,None,0.7055555555555555,1.63366919150576,912.3289923481643,None,912.3289923481643,None,,,,,,,005,001,2021_Feb_10_1409,deception_task,2020.2.10,59.977642036052266,
28,Indirect,LIE,Is your religion Catholicism?,,video/V38.mp4,,,,,,,,,,0,29,29,29,,,,,,914.6293313074857,915.1457172296941,926.128111618571,926.6281106560491,929.444092239486,929.9778656275012,932.4109344703611,932.9108770468738,934.4273332245648,None,0.7481481481481481,2.8999931989237666,934.4273332245648,None,934.4273332245648,None,,,,,,,005,001,2021_Feb_10_1409,deception_task,2020.2.10,59.977642036052266,
20,Direct,TRUTH,Which floor of the building is your house on?,,video/V33.mp4,,,,,,,,,,0,30,30,30,,,,,,938.0101524193306,938.5100789556745,945.0096230960917,945.5261107126717,948.8087661059108,949.3423893586732,951.9753681842703,952.4752619988285,953.608907130314,None,0.7342592592592593,2.4173132963478565,953.608907130314,None,953.608907130314,None,,,,,,,005,001,2021_Feb_10_1409,deception_task,2020.2.10,59.977642036052266,
19,Direct,LIE,Which MRT station is closest to your house?,,video/V4.mp4,,,,,,,,,,0,31,31,31,,,,,,956.8084773840383,957.324708679691,960.0079497932456,960.5080521290656,963.3411885967944,963.8739549876191,967.3070138855837,967.823655807646,969.1406267443672,None,0.7342592592592593,1.663946159183979,969.1406267443672,None,969.1406267443672,None,,,,,,,005,001,2021_Feb_10_1409,deception_task,2020.2.10,59.977642036052266,
13,Direct,TRUTH,What is your dream job growing up?,,video/V12.mp4,,,,,,,,,,0,32,32,32,,,,,,971.4397873980924,971.9734857184812,991.4716693379451,991.9713546312414,995.1378992861137,995.6711577870883,999.4375578244217,999.9373242806178,1001.1535370980855,None,0.32407407407407407,2.5853047682903707,1001.1535370980855,None,1001.1535370980855,None,,,,,,,005,001,2021_Feb_10_1409,deception_task,2020.2.10,59.977642036052266,
19,Direct,TRUTH,Which MRT station is closest to your house?,,video/V29.mp4,,,,,,,,,,0,33,33,33,,,,,,1004.3866863339208,1004.920308945002,1010.9028717549518,1011.4195582685061,1014.169061667053,1014.7027153959498,1018.6021234523505,1019.1021022794303,1020.552075781161,None,0.8185185185185185,2.4499792761635035,1020.552075781161,None,1020.552075781161,None,,,,,,,005,001,2021_Feb_10_1409,deception_task,2020.2.10,59.977642036052266,
10,Indirect,TRUTH,Do you hate eating Pizza the most?,,video/V32.mp4,,,,,,,,,,0,34,34,34,,,,,,1023.7183782306965,1024.2517015335616,1029.9843339573126,1030.484135380946,1033.7503884912003,1034.283887914382,1036.917034840444,1037.417002439266,1038.5335536387283,None,0.8148148148148149,1.8152058841660619,1038.5335536387283,None,1038.5335536387283,None,,,,,,,005,001,2021_Feb_10_1409,deception_task,2020.2.10,59.977642036052266,
2,Indirect,LIE,Are you from Singapore Chinese Girls School?,,video/V37.mp4,,,,,,,,,,0,35,35,35,,,,,,1040.9334291033447,1041.433235339122,1048.249374115374,1048.7492538145743,1051.5655475382227,1052.0990033324342,1054.931738797808,1055.431757404469,1056.7649314061273,None,0.8129629629629629,1.731789997778833,1056.7649314061273,None,1056.7649314061273,None,,,,,,,005,001,2021_Feb_10_1409,deception_task,2020.2.10,59.977642036052266,
3,Indirect,TRUTH,Is Jane your closest friend back in secondary school?,,video/V20.mp4,,,,,,,,,,0,36,36,36,,,,,,1059.1312930115964,1059.6483256705105,1064.2810087169055,1064.7809577092994,1067.780710691819,1068.3136746964883,1072.3469187612645,1072.8468616586179,1073.9465242391452,None,0.8129629629629629,2.466495122993365,1073.9465242391452,None,1073.9465242391452,None,,,,,,,005,001,2021_Feb_10_1409,deception_task,2020.2.10,59.977642036052266,
2,Direct,TRUTH,Which secondary school did you attend?,,video/V34.mp4,,,,,,,,,,0,37,37,37,,,,,,1077.0130489403382,1077.5462647743989,1081.195968289394,1081.6958409310319,1084.8958477962296,1085.4290623471607,1088.8618379770778,1089.3618216160685,1090.5782881879713,None,0.8518518518518519,2.6333535225130618,1090.5782881879713,None,1090.5782881879713,None,,,,,,,005,001,2021_Feb_10_1409,deception_task,2020.2.10,59.977642036052266,
6,Indirect,LIE,Were you in the Girl Guides CCA during secondary school?,,video/V13.mp4,,,,,,,,,,0,38,38,38,,,,,,1093.8279763683677,1094.3445191627834,1101.0938958446495,1101.593742822064,1104.5601365717594,1105.0936321453191,1108.3596667894162,1108.8599189396482,1110.5097020135727,None,0.19907407407407407,1.8820671066641808,1110.5097020135727,None,1110.5097020135727,None,,,,,,,005,001,2021_Feb_10_1409,deception_task,2020.2.10,59.977642036052266,
22,Direct,LIE,"Which year in NTU are you currently in? (Eg. 1, 2, 3, 4)",,video/V14.mp4,,,,,,,,,,0,39,39,39,,,,,,1113.1428354657255,1113.6596060295124,1121.1749060370494,1121.6749153402634,1124.4414068064652,1124.9749110415578,1127.6080717621371,1128.107947290875,1130.1242283107713,None,0.8777777777777778,2.216210250975564,1130.1242283107713,None,1130.1242283107713,None,,,,,,,005,001,2021_Feb_10_1409,deception_task,2020.2.10,59.977642036052266,
7,Indirect,TRUTH,Is your favourite sport Tennis?,,,bit/B26.mp4,,,,,,,,,,,,,0,0,0,0,,1206.2333927245345,1206.7502078795806,,,,,,,1221.3488644252066,None,0.8268518518518518,2.8998831638600677,1221.3488644252066,None,1221.3488644252066,None,1212.4995967519935,1212.9994908873923,1215.0993109815754,1215.632712880848,1219.8155375935603,1220.3153662851546,005,001,2021_Feb_10_1409,deception_task,2020.2.10,59.977642036052266,
16,Direct,TRUTH,"How many siblings do you have? (Eg. 0, 1, 2, 3)",,,bit/B32.mp4,,,,,,,,,,,,,0,1,1,1,,1226.931445905706,1227.4312585573643,,,,,,,1237.8472225607838,None,0.6370370370370371,2.568211156874895,1237.8472225607838,None,1237.8472225607838,None,1231.0142288499046,1231.514114965219,1232.9308694247156,1233.4640210985672,1236.0137684990186,1236.5139330704696,005,001,2021_Feb_10_1409,deception_task,2020.2.10,59.977642036052266,
13,Indirect,TRUTH,Did you not have a dream job growing up?,,,bit/B29.mp4,,,,,,,,,,,,,0,2,2,2,,1241.2630117272492,1241.7633832159918,,,,,,,1254.162136194529,None,0.7277777777777777,2.4329729229211807,1254.162136194529,None,1254.162136194529,None,1246.0128526093904,1246.5127906946,1248.0291252885945,1248.5624380051158,1252.2289188203868,1252.7289172164164,005,001,2021_Feb_10_1409,deception_task,2020.2.10,59.977642036052266,
23,Direct,TRUTH,What course are you studying?,,,bit/B17.mp4,,,,,,,,,,,,,0,3,3,3,,1257.394772467902,1257.8946605080273,,,,,,,1271.093264827039,None,0.737037037037037,2.2031497617717832,1271.093264827039,None,1271.093264827039,None,1263.9279889438767,1264.4277246030979,1266.0273589529097,1266.5441317623481,1269.4773083946202,1269.9773555523716,005,001,2021_Feb_10_1409,deception_task,2020.2.10,59.977642036052266,
15,Direct,LIE,Which polytechnic or junior college are you from?,,,bit/B11.mp4,,,,,,,,,,,,,0,4,4,4,,1273.9767992817797,1274.4936814846005,,,,,,,1288.3921091700904,None,0.7324074074074074,1.8825762192718685,1288.3921091700904,None,1288.3921091700904,None,1280.1597824706696,1280.6591001248453,1282.6592871523462,1283.1925742046442,1286.2255850464571,1286.742015239317,005,001,2021_Feb_10_1409,deception_task,2020.2.10,59.977642036052266,
13,Indirect,LIE,Is your dream job a Doctor when you were growing up?,,,bit/B10.mp4,,,,,,,,,,,,,0,5,5,5,,1290.9415299943648,1291.4584378611762,,,,,,,1304.1905807412695,None,0.3074074074074074,2.150277108652517,1304.1905807412695,None,1304.1905807412695,None,1295.3244273364544,1295.8243782536592,1297.6579240649007,1298.1910683603492,1302.3238011309877,1302.823664148571,005,001,2021_Feb_10_1409,deception_task,2020.2.10,59.977642036052266,
18,Indirect,TRUTH,Was the last country you visited Japan?,,,bit/B12.mp4,,,,,,,,,,,,,0,6,6,6,,1307.190030565951,1307.7234690368641,,,,,,,1319.688893964747,None,0.35370370370370374,2.1002291166223586,1319.688893964747,None,1319.688893964747,None,1310.7227327963337,1311.2229830217548,1313.3893682381604,1313.9062619898468,1317.372635208303,1317.8723824163899,005,001,2021_Feb_10_1409,deception_task,2020.2.10,59.977642036052266,
27,Indirect,TRUTH,Do you drink alcohol regularly?,,,bit/B33.mp4,,,,,,,,,,,,,0,7,7,7,,1322.45541718998,1322.955112107331,,,,,,,1334.271031134529,None,0.34814814814814815,1.8486716232728213,1334.271031134529,None,1334.271031134529,None,1326.6047360633966,1327.1047001336701,1328.504738886375,1329.0381882644724,1332.2041910849512,1332.7040723883547,005,001,2021_Feb_10_1409,deception_task,2020.2.10,59.977642036052266,
2,Indirect,TRUTH,Are you from Anderson Secondary School?,,,bit/B15.mp4,,,,,,,,,,,,,0,8,8,8,,1336.8705182361882,1337.3871473262552,,,,,,,1350.1523475644644,None,0.34814814814814815,2.0998496080283076,1350.1523475644644,None,1350.1523475644644,None,1341.852921928279,1342.3531663795002,1344.402832617052,1344.9364529827144,1347.9027658903506,1348.4025288175326,005,001,2021_Feb_10_1409,deception_task,2020.2.10,59.977642036052266,
10,Direct,LIE,What food do you hate the most?,,,bit/B16.mp4,,,,,,,,,,,,,0,9,9,9,,1352.9189859577455,1353.4522399676498,,,,,,,1364.9677067920566,None,0.5,2.2337696668691933,1364.9677067920566,None,1364.9677067920566,None,1357.9014932690188,1358.4017896899022,1360.1514422614127,1360.6843696946744,1363.2344411052763,1363.7344282730483,005,001,2021_Feb_10_1409,deception_task,2020.2.10,59.977642036052266,
18,Indirect,LIE,"Was the last country you visited Bangkok, Thailand?",,,bit/B21.mp4,,,,,,,,,,,,,0,10,10,10,,1367.9838466593064,1368.5008376138285,,,,,,,1386.5991210667416,None,0.4444444444444444,2.7838831022381783,1386.5991210667416,None,1386.5991210667416,None,1378.4330922614317,1378.9329276899807,1380.932612983277,1381.4662294990849,1384.899161359528,1385.3991944021545,005,001,2021_Feb_10_1409,deception_task,2020.2.10,59.977642036052266,
21,Direct,LIE,"Which school in NTU are you from? (Eg. NBS, SSS, SOH)",,,bit/B13.mp4,,,,,,,,,,,,,0,11,11,11,,1390.1653175875545,1390.681628121296,,,,,,,1405.5137758774217,None,0.43796296296296294,2.34974855533801,1405.5137758774217,None,1405.5137758774217,None,1398.164347161539,1398.6640991817694,1400.2809304411057,1400.8139499446843,1403.713795254007,1404.2138173892163,005,001,2021_Feb_10_1409,deception_task,2020.2.10,59.977642036052266,
23,Indirect,LIE,Are you studying Accounting course in NTU?,,,bit/B24.mp4,,,,,,,,,,,,,0,12,12,12,,1408.8466358140577,1409.3801846406423,,,,,,,1421.094992024824,None,0.23518518518518516,2.1686616269871593,1421.094992024824,None,1421.094992024824,None,1412.8463339393493,1413.346386230085,1415.1457002272364,1415.679139339598,1419.2791172685102,1419.7789745116606,005,001,2021_Feb_10_1409,deception_task,2020.2.10,59.977642036052266,
14,Indirect,TRUTH,Is your favourite flavour Blueberry?,,,bit/B35.mp4,,,,,,,,,,,,,0,13,13,13,,1423.9286671192385,1424.4618576101493,,,,,,,1435.3437691277359,None,0.27685185185185185,2.002576039871201,1435.3437691277359,None,1435.3437691277359,None,1427.4116136082448,1427.911412465386,1429.477774519939,1430.0111302237492,1433.4439273474272,1433.9609420413617,005,001,2021_Feb_10_1409,deception_task,2020.2.10,59.977642036052266,
19,Indirect,LIE,Is the Dover station the closest MRT to your house?,,,bit/B3.mp4,,,,,,,,,,,,,0,14,14,14,,1438.1605161447078,1438.69383367314,,,,,,,1455.092057649279,None,0.24907407407407406,2.0357357335742563,1455.092057649279,None,1455.092057649279,None,1446.4427849715576,1446.9427737435326,1448.8757572530303,1449.392397891963,1453.5256712138653,1454.0254197050817,005,001,2021_Feb_10_1409,deception_task,2020.2.10,59.977642036052266,
28,Direct,TRUTH,What religion do you practice?,,,bit/B19.mp4,,,,,,,,,,,,,0,15,15,15,,1457.7417367831804,1458.2585397479124,,,,,,,1466.7910620083567,None,0.2574074074074074,2.30000917497091,1466.7910620083567,None,1466.7910620083567,None,1461.008287918521,1461.5082083595917,1463.4409114881419,1463.9579752648715,1465.1909442099277,1465.691075097071,005,001,2021_Feb_10_1409,deception_task,2020.2.10,59.977642036052266,
7,Indirect,LIE,Is your favourite sport Softball?,,,bit/B23.mp4,,,,,,,,,,,,,0,16,16,16,,1469.790708163986,1470.3237016825005,,,,,,,1483.6892779646441,None,0.5407407407407407,5.466580777196214,1483.6892779646441,None,1483.6892779646441,None,1476.2735414097551,1476.7731766579673,1478.5394852668978,1479.073012278881,1481.9062684059609,1482.4058240952436,005,001,2021_Feb_10_1409,deception_task,2020.2.10,59.977642036052266,
22,Indirect,TRUTH,Are you in your 1st year in NTU?,,,bit/B37.mp4,,,,,,,,,,,,,0,17,17,17,,1489.8385496800765,1490.3552031510044,,,,,,,1499.9209560025483,None,0.5407407407407407,1.6315756379626691,1499.9209560025483,None,1499.9209560025483,None,1492.9883128639776,1493.4883054855745,1495.2710792548023,1495.7881751116365,1497.7211191623937,1498.2210011074785,005,001,2021_Feb_10_1409,deception_task,2020.2.10,59.977642036052266,
20,Indirect,TRUTH,Is your house on the 24th floor of the building?,,,bit/B6.mp4,,,,,,,,,,,,,0,18,18,18,,1502.2039110248443,1502.7371993605047,,,,,,,1515.2360463982914,None,0.8574074074074074,2.266670152777806,1515.2360463982914,None,1515.2360463982914,None,1507.8868213915266,1508.386670293752,1509.9533335813321,1510.4867515210062,1513.4528790051118,1513.986085856799,005,001,2021_Feb_10_1409,deception_task,2020.2.10,59.977642036052266,
1,Direct,TRUTH,Which primary school are you from?,,,bit/B14.mp4,,,,,,,,,,,,,0,19,19,19,,1518.2023926691618,1518.735753826797,,,,,,,1528.1015764849726,None,0.700925925925926,0.9485568401869386,1528.1015764849726,None,1528.1015764849726,None,1520.1354403391015,1520.63531330158,1522.735109335743,1523.268641801551,1525.6848233086057,1526.1847164817154,005,001,2021_Feb_10_1409,deception_task,2020.2.10,59.977642036052266,
21,Indirect,TRUTH,Are you from School of Humanities in NTU?,,,bit/B8.mp4,,,,,,,,,,,,,0,20,20,20,,1530.384402865544,1530.901247534668,,,,,,,1542.416782048298,None,0.6925925925925926,1.0816428139805794,1542.416782048298,None,1542.416782048298,None,1533.9840782782994,1534.4840154009871,1536.2337359825615,1536.7672527290415,1539.9004686274566,1540.400188246509,005,001,2021_Feb_10_1409,deception_task,2020.2.10,59.977642036052266,
19,Indirect,TRUTH,Is the Eunos station the closest MRT to your house?,,,bit/B36.mp4,,,,,,,,,,,,,0,21,21,21,,1544.500035288278,1545.0331673931796,,,,,,,1556.8819490515161,None,0.6824074074074074,1.931588021107018,1556.8819490515161,None,1556.8819490515161,None,1548.0827816608362,1548.5995397132356,1550.48236262938,1550.9993240702897,1554.465460215928,1554.981994348811,005,001,2021_Feb_10_1409,deception_task,2020.2.10,59.977642036052266,
6,Direct,LIE,What CCA (Co-curricular Activity) did you join in secondary school?,,,bit/B31.mp4,,,,,,,,,,,,,0,22,22,22,,1559.515013531316,1560.048535731621,,,,,,,1574.796860824572,None,0.6416666666666666,2.1825940560083836,1574.796860824572,None,1574.796860824572,None,1566.7809727869462,1567.2805092281196,1569.3639385881834,1569.8975425928365,1572.9637455295306,1573.4635947525967,005,001,2021_Feb_10_1409,deception_task,2020.2.10,59.977642036052266,
29,Indirect,LIE,Do you use a Huawei phone?,,,bit/B30.mp4,,,,,,,,,,,,,0,23,23,23,,1577.8464183104225,1578.379838816356,,,,,,,1587.5289799652528,None,0.3657407407407407,3.0160763482563198,1587.5289799652528,None,1587.5289799652528,None,1580.9129548810888,1581.4127787607722,1582.8794801596086,1583.4126321543008,1585.3458482453134,1585.8454093881883,005,001,2021_Feb_10_1409,deception_task,2020.2.10,59.977642036052266,
3,Direct,TRUTH,Who is your closest friend back in secondary school?,,,bit/B25.mp4,,,,,,,,,,,,,0,24,24,24,,1591.2950505390763,1591.8118201403413,,,,,,,1602.6608077536803,None,0.6814814814814815,2.5323827117681503,1602.6608077536803,None,1602.6608077536803,None,1594.128483748762,1594.6282989669126,1596.17775251274,1596.7112240262795,1600.4776458782144,1600.9771649960894,005,001,2021_Feb_10_1409,deception_task,2020.2.10,59.977642036052266,
27,Indirect,LIE,Do you drink alcohol rarely?,,,bit/B34.mp4,,,,,,,,,,,,,0,25,25,25,,1605.9770331464242,1606.4935618254822,,,,,,,1620.7586100036278,None,0.7185185185185186,2.268099967157468,1620.7586100036278,None,1620.7586100036278,None,1612.7595922991168,1613.2597523792647,1615.2591062842403,1615.7762756047305,1618.8255161382258,1619.3256515166722,005,001,2021_Feb_10_1409,deception_task,2020.2.10,59.977642036052266,
30,Direct,LIE,What brand of laptop do you mainly use?,,,bit/B20.mp4,,,,,,,,,,,,,0,26,26,26,,1623.7753013293259,1624.3086150081363,,,,,,,1635.4238663178403,None,0.7907407407407407,1.8648467785678804,1635.4238663178403,None,1635.4238663178403,None,1628.4246535659768,1628.9245746487286,1630.624447097769,1631.1574248969555,1633.5407931765076,1634.0409003242385,005,001,2021_Feb_10_1409,deception_task,2020.2.10,59.977642036052266,
2,Direct,LIE,Which secondary school did you attend?,,,bit/B7.mp4,,,,,,,,,,,,,0,27,27,27,,1637.9739281043876,1638.4907252946869,,,,,,,1655.9719862903003,None,0.42314814814814816,2.067511808592826,1655.9719862903003,None,1655.9719862903003,None,1648.7893980087247,1649.2892821992282,1650.7558273675386,1651.2894175776746,1654.0221629238222,1654.5388930663466,005,001,2021_Feb_10_1409,deception_task,2020.2.10,59.977642036052266,
28,Direct,LIE,What religion do you practice?,,,bit/B18.mp4,,,,,,,,,,,,,0,28,28,28,,1658.6885651426855,1659.1883707367815,,,,,,,1668.853974800324,None,0.5296296296296297,1.3818396581336856,1668.853974800324,None,1668.853974800324,None,1661.2544860944618,1661.7545431973413,1663.7879418886732,1664.3213418631349,1666.6875655236654,1667.1874955890235,005,001,2021_Feb_10_1409,deception_task,2020.2.10,59.977642036052266,
22,Indirect,LIE,Are you in your 3rd year in NTU?,,,bit/B4.mp4,,,,,,,,,,,,,0,29,29,29,,1671.0707403596025,1671.5870191338472,,,,,,,1681.4528661728837,None,0.1425925925925926,2.2504828069359064,1681.4528661728837,None,1681.4528661728837,None,1674.420143411262,1674.9200664188247,1676.653089258587,1677.186832812149,1679.5865000763442,1680.0861080563627,005,001,2021_Feb_10_1409,deception_task,2020.2.10,59.977642036052266,
1,Indirect,LIE,Are you from Pioneer Primary School?,,,bit/B5.mp4,,,,,,,,,,,,,0,30,30,30,,1684.4025403663982,1684.9357058347668,,,,,,,1693.7515501149464,None,0.39537037037037037,1.581655645975843,1693.7515501149464,None,1693.7515501149464,None,1687.0356924254447,1687.5354903200641,1689.4519271855243,1689.9853358219843,1691.8186195378657,1692.3186108761001,005,001,2021_Feb_10_1409,deception_task,2020.2.10,59.977642036052266,
15,Indirect,TRUTH,Are you from Singapore Polytechnic?,,,bit/B1.mp4,,,,,,,,,,,,,0,31,31,31,,1696.01807077392,1696.5514640116598,,,,,,,1706.3835306051187,None,0.9666666666666667,1.1817891637329012,1706.3835306051187,None,1706.3835306051187,None,1698.7012541431468,1699.2010244489647,1700.9841251152102,1701.5177134005353,1704.0007805111818,1704.5006983857602,005,001,2021_Feb_10_1409,deception_task,2020.2.10,59.977642036052266,
16,Direct,LIE,"How many siblings do you have? (Eg. 0, 1, 2, 3)",,,bit/B40.mp4,,,,,,,,,,,,,0,32,32,32,,1708.4668326068204,1708.9836330050603,,,,,,,1717.6157366831321,None,0.6583333333333333,1.4157888456247747,1717.6157366831321,None,1717.6157366831321,None,1711.0501532149501,1711.549829525873,1713.249482867308,1713.7831686763093,1715.7161438451149,1716.2159564967733,005,001,2021_Feb_10_1409,deception_task,2020.2.10,59.977642036052266,
29,Indirect,TRUTH,Do you use a Apple phone?,,,bit/B28.mp4,,,,,,,,,,,,,0,33,33,33,,1719.8990362468176,1720.4156582790893,,,,,,,1729.1313337532338,None,0.8601851851851852,1.831730713834986,1729.1313337532338,None,1729.1313337532338,None,1722.681996401865,1723.181980682537,1724.648350372212,1725.1816027779132,1726.9481378728524,1727.4482456624974,005,001,2021_Feb_10_1409,deception_task,2020.2.10,59.977642036052266,
20,Direct,LIE,Which floor of the building is your house on?,,,bit/B39.mp4,,,,,,,,,,,,,0,34,34,34,,1731.7641964487266,1732.2809557844885,,,,,,,1742.7635965491645,None,0.6296296296296297,1.5482694660313427,1742.7635965491645,None,1742.7635965491645,None,1736.014086093055,1736.5138275264762,1738.39703989611,1738.913528474979,1740.7803680752404,1741.280320917489,005,001,2021_Feb_10_1409,deception_task,2020.2.10,59.977642036052266,
14,Direct,LIE,"What is your favourite flavour?(E.g. chocolate, vanilla, milktea; it can be a complicated flavour)",,,bit/B27.mp4,,,,,,,,,,,,,0,35,35,35,,1745.1797588083427,1745.6796186177526,,,,,,,1756.6287391071673,None,0.5259259259259259,1.7987901277374476,1756.6287391071673,None,1756.6287391071673,None,1749.612590257544,1750.1125822374597,1752.0959874733817,1752.6289861246478,1754.8290767192375,1755.328777731629,005,001,2021_Feb_10_1409,deception_task,2020.2.10,59.977642036052266,
6,Direct,TRUTH,What CCA (Co-curricular Activity) did you join in secondary school?,,,bit/B9.mp4,,,,,,,,,,,,,0,36,36,36,,1759.3115978247952,1759.8285435463767,,,,,,,1770.360200924566,None,0.7907407407407407,1.3833009109366685,1770.360200924566,None,1770.360200924566,None,1762.5946253482252,1763.0945230124053,1765.2276718632784,1765.7608110257424,1768.227213758044,1768.7274514723103,005,001,2021_Feb_10_1409,deception_task,2020.2.10,59.977642036052266,
3,Indirect,LIE,Is Glenda your closest friend back in secondary school?,,,bit/B22.mp4,,,,,,,,,,,,,0,37,37,37,,1772.493746928405,1772.9933308481704,,,,,,,1785.7424820060842,None,0.8435185185185186,1.4149704799056053,1785.7424820060842,None,1785.7424820060842,None,1777.976561567746,1778.4932490435895,1779.8596375964116,1780.3931389444042,1783.9759414575528,1784.4757261993363,005,001,2021_Feb_10_1409,deception_task,2020.2.10,59.977642036052266,
10,Direct,TRUTH,What food do you hate the most?,,,bit/B2.mp4,,,,,,,,,,,,,0,38,38,38,,1788.4923264172394,1789.0089625648689,,,,,,,1803.040654269047,None,0.7592592592592593,1.4989429574925452,1803.040654269047,None,1803.040654269047,None,1795.858086839784,1796.3581885339227,1798.1075764438137,1798.6407550650183,1800.7908092164434,1801.2907142590266,005,001,2021_Feb_10_1409,deception_task,2020.2.10,59.977642036052266,
30,Indirect,TRUTH,Do you use a Dell laptop?,,,bit/B38.mp4,,,,,,,,,,,,,0,39,39,39,,1805.3569951506797,1805.8738606718834,,,,,,,1814.5562199007254,None,0.7740740740740741,1.5483102079015225,1814.5562199007254,None,1814.5562199007254,None,1807.7737643669825,1808.273550071288,1809.806783870561,1810.3400083663873,1812.1233146670274,1812.6230580252595,005,001,2021_Feb_10_1409,deception_task,2020.2.10,59.977642036052266,
