item,style,condition,question,respond,video,bitalino,trials_3.thisRepN,trials_3.thisTrialN,trials_3.thisN,trials_3.thisIndex,Trialsloop.thisRepN,Trialsloop.thisTrialN,Trialsloop.thisN,Trialsloop.thisIndex,trials_2.thisRepN,trials_2.thisTrialN,trials_2.thisN,trials_2.thisIndex,trials.thisRepN,trials.thisTrialN,trials.thisN,trials.thisIndex,IDRESPONSE.text,sensor2.started,sensor2.stopped,sensor3.started,sensor3.stopped,sensor.started,sensor.stopped,sensor4.started,sensor4.stopped,textsubjresp.started,textsubjresp.stopped,SubjectiveResponse.response,SubjectiveResponse.rt,SubjectiveResponse.started,SubjectiveResponse.stopped,textsubjcon.started,textsubjcon.stopped,sensor5.started,sensor5.stopped,sensor1.started,sensor1.stopped,sensor6.started,sensor6.stopped,participant,session,date,expName,psychopyVersion,frameRate,
1,directx,TRUTH ,What is your favourite song?,"My favourite song is "Perfect" by Ed Sheeran",,,0,0,0,0,,,,,,,,,,,,,ID 014 ,,,,,,,,,,,,,,,,,,,,,,,014,001,2021_Feb_19_1551,deception_task,2020.2.10,59.94880520088584,
2,indirectx,LIE,What is your favourite tv-show/tv-drama?,"My favourite drama is F.R.I.E.N.D.S",,,0,1,1,1,,,,,,,,,,,,,,,,,,,,,,,,,,,,,,,,,,,,014,001,2021_Feb_19_1551,deception_task,2020.2.10,59.94880520088584,
3,directx,TRUTH ,Is George Washington your role model in life?,""No, my role model is Lee Kuan Yew"",,,0,2,2,2,,,,,,,,,,,,,,,,,,,,,,,,,,,,,,,,,,,,014,001,2021_Feb_19_1551,deception_task,2020.2.10,59.94880520088584,
4,indirectx,LIE,Is MacDonalds your favourite restaurant?,""Yes, MacDonalds is my favourite restaurant"",,,0,3,3,3,,,,,,,,,,,,,,,,,,,,,,,,,,,,,,,,,,,,014,001,2021_Feb_19_1551,deception_task,2020.2.10,59.94880520088584,
5,directx,TRUTH ,Who is your favourite celebrity?,"My favourite celebrity is Chris Hemsworth",,,0,4,4,4,,,,,,,,,,,,,,,,,,,,,,,,,,,,,,,,,,,,014,001,2021_Feb_19_1551,deception_task,2020.2.10,59.94880520088584,
1,directx,TRUTH ,What is your favourite song?,"My favourite song is "Perfect" by Ed Sheeran",,,,,,,0,0,0,0,,,,,,,,,,,,,,,,,,,,,,,,,,,,,,,,014,001,2021_Feb_19_1551,deception_task,2020.2.10,59.94880520088584,
2,indirectx,LIE,What is your favourite tv-show/tv-drama?,"My favourite drama is F.R.I.E.N.D.S",,,,,,,0,1,1,1,,,,,,,,,,,,,,,,,,,,,,,,,,,,,,,,014,001,2021_Feb_19_1551,deception_task,2020.2.10,59.94880520088584,
3,directx,TRUTH ,Is George Washington your role model in life?,""No, my role model is Lee Kuan Yew"",,,,,,,0,2,2,2,,,,,,,,,,,,,,,,,,,,,,,,,,,,,,,,014,001,2021_Feb_19_1551,deception_task,2020.2.10,59.94880520088584,
4,indirectx,LIE,Is MacDonalds your favourite restaurant?,""Yes, MacDonalds is my favourite restaurant"",,,,,,,0,3,3,3,,,,,,,,,,,,,,,,,,,,,,,,,,,,,,,,014,001,2021_Feb_19_1551,deception_task,2020.2.10,59.94880520088584,
5,directx,TRUTH ,Who is your favourite celebrity?,"My favourite celebrity is Chris Hemsworth",,,,,,,0,4,4,4,,,,,,,,,,,,,,,,,,,,,,,,,,,,,,,,014,001,2021_Feb_19_1551,deception_task,2020.2.10,59.94880520088584,
3,Direct,LIE,Who is your closest friend back in secondary school?,,video/V30.mp4,,,,,,,,,,0,0,0,0,,,,,,419.9787645144388,420.4787478330545,438.97693722648546,439.47673865035176,443.059323980473,443.5926087871194,446.1593455383554,446.6595874228515,448.17588865337893,None,0,11.915490499697626,448.17588865337893,None,448.17588865337893,None,,,,,,,014,001,2021_Feb_19_1551,deception_task,2020.2.10,59.94880520088584,
29,Direct,TRUTH,What brand of handphone do you use?,,video/V3.mp4,,,,,,,,,,0,1,1,1,,,,,,492.9545478168875,493.45445670885965,506.7700356859714,507.26992693403736,510.4193051555194,510.9527984838933,513.3526742691174,513.8524558031932,515.4522874462418,None,0.8231481481481482,4.166142689995468,515.4522874462418,None,515.4522874462418,None,,,,,,,014,001,2021_Feb_19_1551,deception_task,2020.2.10,59.94880520088584,
15,Direct,LIE,Which polytechnic or junior college are you from?,,video/V39.mp4,,,,,,,,,,0,2,2,2,,,,,,522.6685730856843,523.1683231811039,540.5329283955507,541.032917809207,543.7326346691698,544.2660131501034,547.8324967888184,548.3323659016751,549.8657787083648,None,0.1425925925925926,8.349139352329075,549.8657787083648,None,549.8657787083648,None,,,,,,,014,001,2021_Feb_19_1551,deception_task,2020.2.10,59.94880520088584,
8,Direct,LIE,What is your favourite food?,,video/V18.mp4,,,,,,,,,,0,3,3,3,,,,,,559.6146385781467,560.114693114534,568.6638495977968,569.1636872719973,572.3799924803898,572.9133876427077,575.6464531491511,576.1463742321357,577.9627622715198,None,0.06574074074074077,3.816720390226692,577.9627622715198,None,577.9627622715198,None,,,,,,,014,001,2021_Feb_19_1551,deception_task,2020.2.10,59.94880520088584,
3,Indirect,TRUTH,Is Sabrina your closest friend back in secondary school?,,video/V22.mp4,,,,,,,,,,0,4,4,4,,,,,,583.3456047563814,583.8455575988628,604.2771414490417,604.7769640455954,607.8596282931976,608.3931816108525,614.0260327574797,614.5258681862615,616.0924702007324,None,0.9611111111111111,3.2840675632469356,616.0924702007324,None,616.0924702007324,None,,,,,,,014,001,2021_Feb_19_1551,deception_task,2020.2.10,59.94880520088584,
16,Indirect,TRUTH,Do you have 1 sibling?,,video/V1.mp4,,,,,,,,,,0,5,5,5,,,,,,620.792128674686,621.3254166897386,626.4246349595487,626.9245717613958,629.4408226259984,629.974397437647,632.0077550662681,632.5075186351314,634.0905713737011,None,0.059259259259259234,6.000365714076906,634.0905713737011,None,634.0905713737011,None,,,,,,,014,001,2021_Feb_19_1551,deception_task,2020.2.10,59.94880520088584,
18,Indirect,LIE,Was the last country you visited Germany?,,video/V7.mp4,,,,,,,,,,0,6,6,6,,,,,,641.1231699851342,641.6229624263942,653.3883715067059,653.8887349753641,656.5381863396615,657.0716318683699,660.4045408875681,660.9045043159276,662.1878090123646,None,0.059259259259259234,2.183414667379111,662.1878090123646,None,662.1878090123646,None,,,,,,,014,001,2021_Feb_19_1551,deception_task,2020.2.10,59.94880520088584,
6,Direct,TRUTH,What CCA (Co-curricular Activity) did you join in secondary school?,,video/V37.mp4,,,,,,,,,,0,7,7,7,,,,,,665.4204731956124,665.9540605186485,679.0029058242217,679.5026007415727,682.2525972123258,682.7854130067863,688.8852382339537,689.3850220134482,691.1016258886084,None,0.9981481481481482,8.449960669968277,691.1016258886084,None,691.1016258886084,None,,,,,,,014,001,2021_Feb_19_1551,deception_task,2020.2.10,59.94880520088584,
13,Direct,LIE,What is your dream job growing up?,,video/V24.mp4,,,,,,,,,,0,8,8,8,,,,,,700.8504912117496,701.3504517534748,709.5330028217286,710.0327917342074,712.8824138934724,713.4157205144875,717.9823212460615,718.4823433812708,719.8820019839332,None,0.08425925925925926,2.734522268176079,719.8820019839332,None,719.8820019839332,None,,,,,,,014,001,2021_Feb_19_1551,deception_task,2020.2.10,59.94880520088584,
23,Direct,TRUTH,What course are you studying?,,video/V10.mp4,,,,,,,,,,0,9,9,9,,,,,,723.598456685897,724.0981878540479,732.1641428107396,732.6639419887215,735.230355692096,735.7636764287017,740.8631625683047,741.3631619266234,742.9459936325438,None,0.9,5.185455929953605,742.9459936325438,None,742.9459936325438,None,,,,,,,014,001,2021_Feb_19_1551,deception_task,2020.2.10,59.94880520088584,
12,Direct,LIE,What was your favourite subject back in secondary school?,,video/V23.mp4,,,,,,,,,,0,10,10,10,,,,,,749.2124097100459,749.7119714948349,771.1101297065616,771.6099693058059,774.5431023086421,775.0766614009626,779.4425860741176,779.9424513373524,781.1926146256737,None,0.07870370370370372,4.966965418774635,781.1926146256737,None,781.1926146256737,None,,,,,,,014,001,2021_Feb_19_1551,deception_task,2020.2.10,59.94880520088584,
19,Direct,LIE,Which MRT station is closest to your house?,,video/V35.mp4,,,,,,,,,,0,11,11,11,,,,,,787.0417976072058,787.5418909606524,800.3074854644947,800.8072740561329,803.8234383040108,804.3570182486437,808.5229889885522,809.0229520965368,810.6899202102795,None,0.06388888888888888,5.366731169167906,810.6899202102795,None,810.6899202102795,None,,,,,,,014,001,2021_Feb_19_1551,deception_task,2020.2.10,59.94880520088584,
30,Indirect,TRUTH,Do you use a Microsoft laptop?,,video/V40.mp4,,,,,,,,,,0,12,12,12,,,,,,817.0722648105584,817.5721987253055,823.8548685545102,824.3550453162752,827.4210124635138,827.954658172559,832.5875834245235,833.0870662918314,834.7204785211943,None,0.5425925925925926,17.181463870685548,834.7204785211943,None,834.7204785211943,None,,,,,,,014,001,2021_Feb_19_1551,deception_task,2020.2.10,59.94880520088584,
10,Direct,TRUTH,What food do you hate the most?,,video/V19.mp4,,,,,,,,,,0,13,13,13,,,,,,852.8355707130395,853.3353763069026,869.2003533313982,869.6999494414777,872.8997067227028,873.433050236199,878.299705054611,878.7995953401551,879.9495057724416,None,0.9148148148148147,4.732344022486359,879.9495057724416,None,879.9495057724416,None,,,,,,,014,001,2021_Feb_19_1551,deception_task,2020.2.10,59.94880520088584,
10,Indirect,LIE,Do you hate eating Prawns the most?,,video/V4.mp4,,,,,,,,,,0,14,14,14,,,,,,885.7988530048169,886.2984985182993,894.4981964514591,894.997878536582,897.7973237419501,898.3309046486393,902.230214218609,902.7303791106679,904.0635377140716,None,0.7851851851851852,7.249538686592132,904.0635377140716,None,904.0635377140716,None,,,,,,,014,001,2021_Feb_19_1551,deception_task,2020.2.10,59.94880520088584,
27,Direct,TRUTH,How frequently do you drink alcohol?,,video/V26.mp4,,,,,,,,,,0,15,15,15,,,,,,912.0625663255341,912.5624890122563,921.8620089646429,922.3617070899345,925.39505605679,925.9280431591906,928.661165127065,929.1611211770214,931.1441459418274,None,0.7601851851851852,9.31666264589876,931.1441459418274,None,931.1441459418274,None,,,,,,,014,001,2021_Feb_19_1551,deception_task,2020.2.10,59.94880520088584,
18,Indirect,TRUTH,Was the last country you visited Malaysia?,,video/V33.mp4,,,,,,,,,,0,16,16,16,,,,,,941.309770536609,941.8098824964836,947.7259844448417,948.225979632698,951.4418729315512,951.9756902693771,957.3083275696263,957.8083455343731,959.0247925370932,None,0.5046296296296297,5.715960667468607,959.0247925370932,None,959.0247925370932,None,,,,,,,014,001,2021_Feb_19_1551,deception_task,2020.2.10,59.94880520088584,
22,Indirect,LIE,Are you in your 1st year in NTU?,,video/V12.mp4,,,,,,,,,,0,17,17,17,,,,,,968.3073330833577,968.8070809333585,975.6898274985142,976.1896533030085,979.0225020111538,979.5560216451995,982.4223078619689,982.92197743617,984.5389273921028,None,0.33333333333333337,2.9182323939166963,984.5389273921028,None,984.5389273921028,None,,,,,,,014,001,2021_Feb_19_1551,deception_task,2020.2.10,59.94880520088584,
9,Indirect,LIE,Is your favourite drink Green Tea?,,video/V21.mp4,,,,,,,,,,0,18,18,18,,,,,,988.388640338555,988.9051860203035,996.237766538281,996.7376635610126,999.487434508279,1000.0207481868565,1002.7872030818835,1003.2869913522154,1004.4366935840808,None,0.8101851851851851,3.918350770138204,1004.4366935840808,None,1004.4366935840808,None,,,,,,,014,001,2021_Feb_19_1551,deception_task,2020.2.10,59.94880520088584,
15,Indirect,TRUTH,Are you from Singapore Polytechnic?,,video/V25.mp4,,,,,,,,,,0,19,19,19,,,,,,1010.2695153453387,1010.7693571900018,1021.3519508605823,1021.8520390815102,1024.6182187278755,1025.1514563765377,1029.51778622251,1030.0175205986015,1031.6340320184827,None,0.6277777777777778,5.133245733100921,1031.6340320184827,None,1031.6340320184827,None,,,,,,,014,001,2021_Feb_19_1551,deception_task,2020.2.10,59.94880520088584,
9,Direct,TRUTH,What is your favourite drink?,,video/V32.mp4,,,,,,,,,,0,20,20,20,,,,,,1038.133275567554,1038.6333487103693,1058.364832663443,1058.864796412643,1061.864208703395,1062.397910552565,1065.9974092035554,1066.4973703864962,1067.5474257566966,None,0.5546296296296296,2.534863472916186,1067.5474257566966,None,1067.5474257566966,None,,,,,,,014,001,2021_Feb_19_1551,deception_task,2020.2.10,59.94880520088584,
13,Direct,TRUTH,What is your dream job growing up?,,video/V17.mp4,,,,,,,,,,0,21,21,21,,,,,,1072.01323500555,1072.5132667645812,1085.0787822226994,1085.5786285586655,1088.3115878799,1088.8449772680178,1093.3112289025448,1093.8113803206943,1095.161063753534,None,0.6185185185185185,9.316528550814837,1095.161063753534,None,1095.161063753534,None,,,,,,,014,001,2021_Feb_19_1551,deception_task,2020.2.10,59.94880520088584,
26,Indirect,TRUTH,Do you not smoke at all? ,,video/V28.mp4,,,,,,,,,,0,22,22,22,,,,,,1105.343401488848,1105.8432215186767,1114.0592787475325,1114.5591680705547,1117.6921834680252,1118.2253216682002,1121.391949731391,1121.891620268114,1123.025074201636,None,0.7768518518518519,2.284426220227033,1123.025074201636,None,1123.025074201636,None,,,,,,,014,001,2021_Feb_19_1551,deception_task,2020.2.10,59.94880520088584,
21,Indirect,LIE,Are you from School of Physical and Mathematical Sciences in NTU?,,video/V34.mp4,,,,,,,,,,0,23,23,23,,,,,,1126.3410817696713,1126.8745767017826,1150.1892397892661,1150.6887261853553,1153.5717306751758,1154.105387612246,1159.2381794103421,1159.738180372864,1161.7044727490284,None,0.8398148148148148,7.6830964321270585,1161.7044727490284,None,1161.7044727490284,None,,,,,,,014,001,2021_Feb_19_1551,deception_task,2020.2.10,59.94880520088584,
30,Direct,LIE,What brand of laptop do you mainly use?,,video/V15.mp4,,,,,,,,,,0,24,24,24,,,,,,1170.8034722320735,1171.3031238410622,1185.0188923478127,1185.518801881466,1188.4686836339533,1189.0016896636225,1192.8842581841163,1193.3842764697038,1194.9679849273525,None,0.762962962962963,3.8683685422874987,1194.9679849273525,None,1194.9679849273525,None,,,,,,,014,001,2021_Feb_19_1551,deception_task,2020.2.10,59.94880520088584,
20,Direct,TRUTH,Which floor of the building is your house on?,,video/V27.mp4,,,,,,,,,,0,25,25,25,,,,,,1202.3501736181788,1202.850190299563,1228.9810560029,1229.4810736472718,1231.9638991937973,1232.497665524017,1237.2301600030623,1237.7299941484816,1239.2300028102472,None,0.2935185185185185,5.033530220389366,1239.2300028102472,None,1239.2300028102472,None,,,,,,,014,001,2021_Feb_19_1551,deception_task,2020.2.10,59.94880520088584,
6,Indirect,LIE,Were you in the Choir CCA during secondary school?,,video/V14.mp4,,,,,,,,,,0,26,26,26,,,,,,1245.1624075928703,1245.6623536981642,1260.361299350392,1260.8606599923223,1263.460995935835,1263.994030837901,1267.5936273331754,1268.0936696790159,1269.7265391116962,None,0.6861111111111111,6.35113281570375,1269.7265391116962,None,1269.7265391116962,None,,,,,,,014,001,2021_Feb_19_1551,deception_task,2020.2.10,59.94880520088584,
28,Direct,LIE,What religion do you practice?,,video/V6.mp4,,,,,,,,,,0,27,27,27,,,,,,1276.826208749786,1277.3262847797014,1289.6584200244397,1290.1582907414995,1292.9748189714737,1293.507974815555,1296.6076470203698,1297.1077063684352,1298.240705725737,None,0.22499999999999998,2.5847074347548187,1298.240705725737,None,1298.240705725737,None,,,,,,,014,001,2021_Feb_19_1551,deception_task,2020.2.10,59.94880520088584,
22,Indirect,TRUTH,Are you in your 3rd year in NTU?,,video/V31.mp4,,,,,,,,,,0,28,28,28,,,,,,1301.4402557690628,1301.9402894531377,1325.42122611776,1325.9213890852407,1328.5208540516905,1329.0542325326242,1332.3874402185902,1332.8871784443036,1334.187403197866,None,0.7,3.101117096375674,1334.187403197866,None,1334.187403197866,None,,,,,,,014,001,2021_Feb_19_1551,deception_task,2020.2.10,59.94880520088584,
20,Direct,LIE,Which floor of the building is your house on?,,video/V11.mp4,,,,,,,,,,0,29,29,29,,,,,,1339.9698468619026,1340.4698808668181,1358.134706985671,1358.6348747652955,1361.2011550152674,1361.7343994011171,1365.3675870685838,1365.8671260764822,1366.9338163114153,None,0.687962962962963,8.416516424622387,1366.9338163114153,None,1366.9338163114153,None,,,,,,,014,001,2021_Feb_19_1551,deception_task,2020.2.10,59.94880520088584,
28,Indirect,TRUTH,Is your religion Christianity?,,video/V29.mp4,,,,,,,,,,0,30,30,30,,,,,,1376.1164908884093,1376.632724750787,1394.3645227686502,1394.8642686936073,1398.0473160422407,1398.5808683978394,1402.313700039871,1402.813301924616,1404.3134071477689,None,0.9453703703703704,3.4168099579401314,1404.3134071477689,None,1404.3134071477689,None,,,,,,,014,001,2021_Feb_19_1551,deception_task,2020.2.10,59.94880520088584,
26,Indirect,LIE,Do you smoke socially?,,video/V9.mp4,,,,,,,,,,0,31,31,31,,,,,,1408.5129263936542,1409.0128404190764,1415.1621737284586,1415.6621580091305,1418.7954983785748,1419.3286365787499,1421.8615444432944,1422.3614806034602,1423.461480346974,None,0.4648148148148148,3.6162541364319623,1423.461480346974,None,1423.461480346974,None,,,,,,,014,001,2021_Feb_19_1551,deception_task,2020.2.10,59.94880520088584,
29,Indirect,LIE,Do you use a Apple phone?,,video/V13.mp4,,,,,,,,,,0,32,32,32,,,,,,1428.477760725189,1428.9775412967429,1439.8265564991161,1440.3266549850814,1442.9262919016182,1443.4595430241898,1446.0260593844578,1446.525776437018,1448.159224275034,None,0.7731481481481481,2.300873415544629,1448.159224275034,None,1448.159224275034,None,,,,,,,014,001,2021_Feb_19_1551,deception_task,2020.2.10,59.94880520088584,
16,Direct,LIE,"How many siblings do you have? (Eg. 0, 1, 2, 3)",,video/V8.mp4,,,,,,,,,,0,33,33,33,,,,,,1452.0919049475342,1452.6086277118884,1459.3581041628495,1459.8580489852466,1462.62424723804,1463.1572519848123,1465.1574390120804,1465.657336034812,1467.0236389334314,None,0.9027777777777778,4.800365585833788,1467.0236389334314,None,1467.0236389334314,None,,,,,,,014,001,2021_Feb_19_1551,deception_task,2020.2.10,59.94880520088584,
21,Indirect,TRUTH,Are you from School of Humanities in NTU?,,video/V5.mp4,,,,,,,,,,0,34,34,34,,,,,,1473.1397159877233,1473.6566261001863,1482.805658497382,1483.3055455749854,1486.0053381444886,1486.53867042996,1492.0047562099062,1492.504659968894,1493.9045524364337,None,0.15555555555555556,2.567825553007424,1493.9045524364337,None,1493.9045524364337,None,,,,,,,014,001,2021_Feb_19_1551,deception_task,2020.2.10,59.94880520088584,
8,Direct,TRUTH,What is your favourite food?,,video/V16.mp4,,,,,,,,,,0,35,35,35,,,,,,1499.1872565913945,1499.6873367917724,1504.553380803205,1505.0532444627024,1508.286351673305,1508.8196037583984,1512.252676771488,1512.7524765911512,1514.602377848234,None,0.35462962962962963,3.95003156689927,1514.602377848234,None,1514.602377848234,None,,,,,,,014,001,2021_Feb_19_1551,deception_task,2020.2.10,59.94880520088584,
19,Direct,TRUTH,Which MRT station is closest to your house?,,video/V2.mp4,,,,,,,,,,0,36,36,36,,,,,,1519.6686670808122,1520.201719947625,1534.783585718833,1535.2835497888736,1538.516778904479,1539.0499116512947,1543.7162394439802,1544.2162157045677,1545.8156453827396,None,0.3787037037037037,5.017145260237157,1545.8156453827396,None,1545.8156453827396,None,,,,,,,014,001,2021_Feb_19_1551,deception_task,2020.2.10,59.94880520088584,
23,Direct,LIE,What course are you studying?,,video/V36.mp4,,,,,,,,,,0,37,37,37,,,,,,1551.732175922487,1552.2319593811408,1577.245974577032,1577.7460432285443,1580.3124784259126,1580.8458399041556,1585.011838233564,1585.5118594067171,1587.1619526958093,None,0.19444444444444442,1.8986615501344204,1587.1619526958093,None,1587.1619526958093,None,,,,,,,014,001,2021_Feb_19_1551,deception_task,2020.2.10,59.94880520088584,
27,Direct,LIE,How frequently do you drink alcohol?,,video/V38.mp4,,,,,,,,,,0,38,38,38,,,,,,1589.9282943471335,1590.444745392073,1599.8439991427585,1600.3435516241007,1602.8935758764856,1603.4269761722535,1607.2263094172813,1607.7265657382086,1609.4763001138344,None,0.37777777777777777,6.766163606196642,1609.4763001138344,None,1609.4763001138344,None,,,,,,,014,001,2021_Feb_19_1551,deception_task,2020.2.10,59.94880520088584,
12,Indirect,TRUTH,Was your favourite subject Mathematics back in secondary school?,,video/V20.mp4,,,,,,,,,,0,39,39,39,,,,,,1617.1090152407996,1617.60871272441,1630.924017095007,1631.4239712199196,1634.6069351607002,1635.1401923783123,1640.339863364119,1640.8397619905882,1642.6725683533587,None,0.9583333333333333,3.969060897361487,1642.6725683533587,None,1642.6725683533587,None,,,,,,,014,001,2021_Feb_19_1551,deception_task,2020.2.10,59.94880520088584,
16,Direct,TRUTH,"How many siblings do you have? (Eg. 0, 1, 2, 3)",,,bit/B35.mp4,,,,,,,,,,,,,0,0,0,0,,1715.1323869461194,1715.6321152267046,,,,,,,1726.4980370127596,None,0.9648148148148148,5.482839662116021,1726.4980370127596,None,1726.4980370127596,None,1719.5985939889215,1720.0985846859403,1721.8482356532477,1722.38179282099,1724.8482863400131,1725.3479174179956,014,001,2021_Feb_19_1551,deception_task,2020.2.10,59.94880520088584,
3,Indirect,LIE,Is Benjamin your closest friend back in secondary school?,,,bit/B38.mp4,,,,,,,,,,,,,0,1,1,1,,1732.6971023241058,1733.1968068657443,,,,,,,1749.0288882157765,None,0.9009259259259259,1.8822429063729942,1749.0288882157765,None,1749.0288882157765,None,1740.5965941096656,1741.0962810069323,1742.8291976614855,1743.3625623476692,1747.145568377804,1747.6457297410816,014,001,2021_Feb_19_1551,deception_task,2020.2.10,59.94880520088584,
20,Indirect,TRUTH,Is your house on the 6th floor of the building?,,,bit/B33.mp4,,,,,,,,,,,,,0,2,2,2,,1752.4785701087676,1753.0120117873885,,,,,,,1773.859586909879,None,0.3222222222222222,4.335366683080792,1773.859586909879,None,1773.859586909879,None,1763.4437951766886,1763.943910986185,1765.826824689284,1766.360423240345,1771.659858500585,1772.1598155130632,014,001,2021_Feb_19_1551,deception_task,2020.2.10,59.94880520088584,
12,Direct,TRUTH,What was your favourite subject back in secondary school?,,,bit/B7.mp4,,,,,,,,,,,,,0,3,3,3,,1779.126031217631,1779.625739929732,,,,,,,1795.02427187562,None,0.5018518518518519,6.933711088262498,1795.02427187562,None,1795.02427187562,None,1784.5920262108557,1785.0919671831653,1787.058376331348,1787.5918144816533,1793.0574832186103,1793.5572769432329,014,001,2021_Feb_19_1551,deception_task,2020.2.10,59.94880520088584,
15,Indirect,LIE,Are you from Temasek Junior College?,,,bit/B4.mp4,,,,,,,,,,,,,0,4,4,4,,1802.6568519445136,1803.1902868868783,,,,,,,1816.271966913715,None,0.7925925925925925,2.2503230473957956,1816.271966913715,None,1816.271966913715,None,1808.1564015387557,1808.656176335644,1810.0726853818633,1810.6062021283433,1813.9723526458256,1814.4723455882631,014,001,2021_Feb_19_1551,deception_task,2020.2.10,59.94880520088584,
16,Indirect,LIE,Do you have 2 siblings?,,,bit/B27.mp4,,,,,,,,,,,,,0,5,5,5,,1819.4386347564869,1819.9383967216127,,,,,,,1831.587432326749,None,0.5935185185185186,9.949184328783303,1831.587432326749,None,1831.587432326749,None,1823.0544814746827,1823.5544869285077,1825.0376958334818,1825.5547063569538,1829.2541761999018,1829.7537537035532,014,001,2021_Feb_19_1551,deception_task,2020.2.10,59.94880520088584,
13,Indirect,LIE,Is your dream job a Doctor when you were growing up?,,,bit/B37.mp4,,,,,,,,,,,,,0,6,6,6,,1843.252415638417,1843.769456638489,,,,,,,1859.7507583759725,None,0.7953703703703704,5.850708073936403,1859.7507583759725,None,1859.7507583759725,None,1849.1355417123996,1849.6356392363086,1851.7516986462288,1852.2851987108588,1857.5014413632452,1858.0011295434088,014,001,2021_Feb_19_1551,deception_task,2020.2.10,59.94880520088584,
28,Indirect,LIE,Is your religion Islam?,,,bit/B40.mp4,,,,,,,,,,,,,0,7,7,7,,1867.4335417049006,1867.933579559438,,,,,,,1879.3656673897058,None,0.31851851851851853,2.9510629451833665,1879.3656673897058,None,1879.3656673897058,None,1871.1168219563551,1871.6167860263959,1873.1828343365341,1873.7163972784765,1877.7162201958708,1878.2159674037248,014,001,2021_Feb_19_1551,deception_task,2020.2.10,59.94880520088584,
30,Direct,TRUTH,What brand of laptop do you mainly use?,,,bit/B26.mp4,,,,,,,,,,,,,0,8,8,8,,1883.1650461889803,1883.664989728015,,,,,,,1898.930446928367,None,0.24907407407407406,4.665733988396823,1898.930446928367,None,1898.930446928367,None,1887.831656608265,1888.3316325484775,1889.9645565170795,1890.4980270680971,1896.9640769180842,1897.4638382415287,014,001,2021_Feb_19_1551,deception_task,2020.2.10,59.94880520088584,
15,Direct,TRUTH,Which polytechnic or junior college are you from?,,,bit/B19.mp4,,,,,,,,,,,,,0,9,9,9,,1904.6467062621377,1905.1463315654546,,,,,,,1920.0451387595385,None,0.2361111111111111,3.933335749898106,1920.0451387595385,None,1920.0451387595385,None,1909.162761116866,1909.6626947107725,1911.6292786961421,1912.1624839436263,1918.2617500131018,1918.7617586748675,014,001,2021_Feb_19_1551,deception_task,2020.2.10,59.94880520088584,
10,Direct,LIE,What food do you hate the most?,,,bit/B15.mp4,,,,,,,,,,,,,0,10,10,10,,1924.9446501140483,1925.4445952568203,,,,,,,1941.4094850872643,None,0.8083333333333333,3.51710933027789,1941.4094850872643,None,1941.4094850872643,None,1930.7940368046984,1931.2939797020517,1932.860570167657,1933.3938722978346,1939.326518644113,1939.8265160778537,014,001,2021_Feb_19_1551,deception_task,2020.2.10,59.94880520088584,
27,Indirect,LIE,Do you drink alcohol rarely?,,,bit/B12.mp4,,,,,,,,,,,,,0,11,11,11,,1946.0923598445952,1946.5922061805613,,,,,,,1959.7078803074546,None,0.3564814814814815,5.034107021987438,1959.7078803074546,None,1959.7078803074546,None,1951.5088114673272,1952.0085487305187,1954.0915511031635,1954.6251814132556,1957.874826606363,1958.3744628168643,014,001,2021_Feb_19_1551,deception_task,2020.2.10,59.94880520088584,
20,Indirect,LIE,Is your house on the 10th floor of the building?,,,bit/B10.mp4,,,,,,,,,,,,,0,12,12,12,,1965.5238667028025,1966.040478469804,,,,,,,1977.3722236193717,None,0.7388888888888889,4.319642896298319,1977.3722236193717,None,1977.3722236193717,None,1969.7900816374458,1970.2900325548835,1971.723168766126,1972.256527357269,1975.7725507733412,1976.2726855101064,014,001,2021_Feb_19_1551,deception_task,2020.2.10,59.94880520088584,
18,Direct,TRUTH,What was the last country you visited?,,,bit/B6.mp4,,,,,,,,,,,,,0,13,13,13,,1982.4390431377105,1982.9388079894707,,,,,,,1998.5204241769388,None,0.3935185185185185,3.7517730724066496,1998.5204241769388,None,1998.5204241769388,None,1985.7386769740842,1986.2384270695038,1987.671732984949,1988.2048750347458,1996.554269103799,1997.0540066878311,014,001,2021_Feb_19_1551,deception_task,2020.2.10,59.94880520088584,
29,Indirect,TRUTH,Do you use a Samsung phone?,,,bit/B23.mp4,,,,,,,,,,,,,0,14,14,14,,2003.0530035402626,2003.553128653206,,,,,,,2014.3021469991654,None,0.3666666666666667,10.299804182723165,2014.3021469991654,None,2014.3021469991654,None,2005.6530738598667,2006.152902231086,2007.6194226974621,2008.1528560356237,2012.352236374747,2012.8525616675615,014,001,2021_Feb_19_1551,deception_task,2020.2.10,59.94880520088584,
26,Direct,LIE,How often do you smoke?,,,bit/B30.mp4,,,,,,,,,,,,,0,15,15,15,,2025.4346279404126,2025.9344685017131,,,,,,,2037.4666378800757,None,0.6925925925925926,5.4174839630723,2037.4666378800757,None,2037.4666378800757,None,2028.7007569000125,2029.2007360481657,2031.3504677931778,2031.8839970510453,2035.3001387789845,2035.7999443728477,014,001,2021_Feb_19_1551,deception_task,2020.2.10,59.94880520088584,
19,Indirect,TRUTH,Is the Admiralty station the closest MRT to your house?,,,bit/B9.mp4,,,,,,,,,,,,,0,16,16,16,,2043.882397532463,2044.3825165499002,,,,,,,2058.11442460306,None,0.6768518518518518,7.233226228039712,2058.11442460306,None,2058.11442460306,None,2047.7492092233151,2048.2485836595297,2049.831854543183,2050.3655733950436,2055.797826438211,2056.297957325354,014,001,2021_Feb_19_1551,deception_task,2020.2.10,59.94880520088584,
28,Direct,TRUTH,What religion do you practice?,,,bit/B18.mp4,,,,,,,,,,,,,0,17,17,17,,2066.097127603367,2066.597172195092,,,,,,,2077.512566454243,None,0.7231481481481481,1.1495245075784624,2077.512566454243,None,2077.512566454243,None,2068.013454754837,2068.513412729837,2069.8796386355534,2070.4131717430428,2075.479316935409,2075.979308274109,014,001,2021_Feb_19_1551,deception_task,2020.2.10,59.94880520088584,
12,Indirect,LIE,Was your favourite subject Biology back in secondary school?,,,bit/B16.mp4,,,,,,,,,,,,,0,18,18,18,,2080.162088715937,2080.6622314727865,,,,,,,2097.8937292201445,None,0.26111111111111107,2.934542607050389,2097.8937292201445,None,2097.8937292201445,None,2088.361773816403,2088.861388533376,2090.8777985158376,2091.411434921436,2096.2942065093666,2096.7939713611268,014,001,2021_Feb_19_1551,deception_task,2020.2.10,59.94880520088584,
29,Direct,LIE,What brand of handphone do you use?,,,bit/B22.mp4,,,,,,,,,,,,,0,19,19,19,,2101.543461606838,2102.0433518928476,,,,,,,2117.1418457916006,None,0.7805555555555556,3.0165302832610905,2117.1418457916006,None,2117.1418457916006,None,2109.459274191875,2109.959352146834,2111.5424693664536,2112.0757211307064,2114.875672240276,2115.375438375864,014,001,2021_Feb_19_1551,deception_task,2020.2.10,59.94880520088584,
9,Indirect,TRUTH,Is your favourite drink Milk?,,,bit/B2.mp4,,,,,,,,,,,,,0,20,20,20,,2120.858276433777,2121.358374278061,,,,,,,2133.173618979752,None,0.7805555555555556,1.9317035097628832,2133.173618979752,None,2133.173618979752,None,2125.4577920869924,2125.957651254721,2127.307107559871,2127.840922972653,2130.9406394478865,2131.440446325112,014,001,2021_Feb_19_1551,deception_task,2020.2.10,59.94880520088584,
23,Indirect,LIE,Are you studying Chemistry and Biological Chemistry course in NTU?,,,bit/B8.mp4,,,,,,,,,,,,,0,21,21,21,,2135.7569668558426,2136.2567977933213,,,,,,,2149.7549493326806,None,0.34814814814814815,2.0685159186832607,2149.7549493326806,None,2149.7549493326806,None,2139.956375104841,2140.4561771699227,2142.3892909251153,2142.922637646552,2147.5219617807306,2148.0221683774143,014,001,2021_Feb_19_1551,deception_task,2020.2.10,59.94880520088584,
27,Indirect,TRUTH,Do you not drink alcohol at all? ,,,bit/B5.mp4,,,,,,,,,,,,,0,22,22,22,,2152.5884078852832,2153.088024848141,,,,,,,2164.470540115144,None,0.8425925925925926,2.616590657737106,2164.470540115144,None,2164.470540115144,None,2155.4547402979806,2155.9547560173087,2157.371341734659,2157.904728877358,2162.370709113311,2162.8707533841953,014,001,2021_Feb_19_1551,deception_task,2020.2.10,59.94880520088584,
6,Direct,LIE,What CCA (Co-curricular Activity) did you join in secondary school?,,,bit/B3.mp4,,,,,,,,,,,,,0,23,23,23,,2167.8868217123672,2168.38695227867,,,,,,,2185.9851115811616,None,0.6703703703703704,3.1170930340886116,2185.9851115811616,None,2185.9851115811616,None,2177.3362190537155,2177.8360945824534,2179.469158420805,2180.0019796686247,2184.3518732269295,2184.8518498083577,014,001,2021_Feb_19_1551,deception_task,2020.2.10,59.94880520088584,
9,Direct,LIE,What is your favourite drink?,,,bit/B21.mp4,,,,,,,,,,,,,0,24,24,24,,2190.0181105532683,2190.5180072551593,,,,,,,2201.1501555247232,None,0.4425925925925926,3.400142051279545,2201.1501555247232,None,2201.1501555247232,None,2193.3678141967393,2193.867515209131,2195.583921149373,2196.10069043003,2198.983765175566,2199.4835351603106,014,001,2021_Feb_19_1551,deception_task,2020.2.10,59.94880520088584,
8,Indirect,LIE,Is your favourite food Pasta?,,,bit/B17.mp4,,,,,,,,,,,,,0,25,25,25,,2205.349867573008,2205.84964718204,,,,,,,2223.01463145623,None,0.6842592592592592,2.2340805237181485,2223.01463145623,None,2223.01463145623,None,2216.3654316002503,2216.865225966554,2218.4315963615663,2218.9652019706555,2221.2816641153768,2221.7815072429366,014,001,2021_Feb_19_1551,deception_task,2020.2.10,59.94880520088584,
21,Direct,TRUTH,"Which school in NTU are you from? (Eg. NBS, SSS, SOH)",,,bit/B29.mp4,,,,,,,,,,,,,0,26,26,26,,2225.9644384616986,2226.46443332918,,,,,,,2246.862076011952,None,0.38055555555555554,3.1027089157141745,2246.862076011952,None,2246.862076011952,None,2233.430094366893,2233.9301864369772,2235.6299071470276,2236.163320274558,2244.479133436922,2244.979076655116,014,001,2021_Feb_19_1551,deception_task,2020.2.10,59.94880520088584,
19,Indirect,LIE,Is the Bedok station the closest MRT to your house?,,,bit/B24.mp4,,,,,,,,,,,,,0,27,27,27,,2250.945219537709,2251.444957442116,,,,,,,2263.677370437421,None,0.3740740740740741,2.98373437859118,2263.677370437421,None,2263.677370437421,None,2255.161515121814,2255.6612950516865,2257.3776422850788,2257.894646071829,2261.361010307912,2261.8608098067343,014,001,2021_Feb_19_1551,deception_task,2020.2.10,59.94880520088584,
6,Indirect,TRUTH,Were you in the Robotics & IT CCA during secondary school?,,,bit/B36.mp4,,,,,,,,,,,,,0,28,28,28,,2267.5269040558487,2268.0269563463517,,,,,,,2283.2420046529733,None,0.8203703703703704,3.567331197205931,2283.2420046529733,None,2283.2420046529733,None,2271.0431802636012,2271.5430673412047,2273.275865620002,2273.8093483615667,2280.875693413429,2281.37551472662,014,001,2021_Feb_19_1551,deception_task,2020.2.10,59.94880520088584,
21,Direct,LIE,"Which school in NTU are you from? (Eg. NBS, SSS, SOH)",,,bit/B28.mp4,,,,,,,,,,,,,0,29,29,29,,2287.524902251549,2288.0412888154387,,,,,,,2303.4229273307137,None,0.8046296296296296,3.019071997143328,2303.4229273307137,None,2303.4229273307137,None,2294.407580486033,2294.9076815387234,2296.9069847567007,2297.440628861543,2301.0901437448338,2301.5901687676087,014,001,2021_Feb_19_1551,deception_task,2020.2.10,59.94880520088584,
30,Indirect,LIE,Do you use a Asus laptop?,,,bit/B32.mp4,,,,,,,,,,,,,0,30,30,30,,2307.256453251932,2307.7897573066875,,,,,,,2321.0715057929046,None,0.5861111111111111,4.584858532529324,2321.0715057929046,None,2321.0715057929046,None,2312.9722977890633,2313.472236836329,2315.6217921408825,2316.138916549273,2318.671858739108,2319.1717410050333,014,001,2021_Feb_19_1551,deception_task,2020.2.10,59.94880520088584,
26,Direct,TRUTH,How often do you smoke?,,,bit/B31.mp4,,,,,,,,,,,,,0,31,31,31,,2326.3876426443458,2326.8874751860276,,,,,,,2340.086455805693,None,0.5777777777777777,5.2835141802206635,2340.086455805693,None,2340.086455805693,None,2329.6874490724877,2330.187400310766,2331.7036069044843,2332.237252292689,2338.4697596039623,2338.969600165263,014,001,2021_Feb_19_1551,deception_task,2020.2.10,59.94880520088584,
10,Indirect,TRUTH,Do you hate eating Bean Sprouts the most?,,,bit/B20.mp4,,,,,,,,,,,,,0,32,32,32,,2346.8357837256044,2347.3355995849706,,,,,,,2359.367909474764,None,0.7962962962962963,2.335168106947094,2359.367909474764,None,2359.367909474764,None,2350.4685059096664,2350.968570390716,2352.53486539796,2353.0683548762463,2356.868099068757,2357.3677025577053,014,001,2021_Feb_19_1551,deception_task,2020.2.10,59.94880520088584,
8,Indirect,TRUTH,Is your favourite food Pizza?,,,bit/B13.mp4,,,,,,,,,,,,,0,33,33,33,,2362.43425645167,2362.933667138219,,,,,,,2372.082863465417,None,0.7777777777777778,1.832693440373987,2372.082863465417,None,2372.082863465417,None,2364.167448033113,2364.6672709505074,2366.733622097876,2367.267058002297,2370.516386243049,2371.0164956361987,014,001,2021_Feb_19_1551,deception_task,2020.2.10,59.94880520088584,
13,Indirect,TRUTH,Is your dream job a Singer when you were growing up?,,,bit/B25.mp4,,,,,,,,,,,,,0,34,34,34,,2374.716250030324,2375.2160716643557,,,,,,,2388.9982509878464,None,0.8490740740740741,2.3505197633057833,2388.9982509878464,None,2388.9982509878464,None,2378.5492639518343,2379.0490839821286,2380.9986920901574,2381.5322800548747,2386.864903560374,2387.3650184073485,014,001,2021_Feb_19_1551,deception_task,2020.2.10,59.94880520088584,
18,Direct,LIE,What was the last country you visited?,,,bit/B1.mp4,,,,,,,,,,,,,0,35,35,35,,2392.064453282859,2392.5641870172694,,,,,,,2404.0467581679113,None,0.7925925925925925,1.4659330784343183,2404.0467581679113,None,2404.0467581679113,None,2394.9806142589077,2395.480433967896,2397.430575249251,2397.963800065685,2401.763135877438,2402.263206453994,014,001,2021_Feb_19_1551,deception_task,2020.2.10,59.94880520088584,
22,Direct,LIE,"Which year in NTU are you currently in? (Eg. 1, 2, 3, 4)",,,bit/B34.mp4,,,,,,,,,,,,,0,36,36,36,,2406.3295085183345,2406.8627699068747,,,,,,,2416.8787548262626,None,0.7925925925925925,2.28509509190917,2416.8787548262626,None,2416.8787548262626,None,2409.2960601029918,2409.7956119426526,2411.4789178580977,2411.9960355293006,2415.062009092886,2415.5618878295645,014,001,2021_Feb_19_1551,deception_task,2020.2.10,59.94880520088584,
22,Direct,TRUTH,"Which year in NTU are you currently in? (Eg. 1, 2, 3, 4)",,,bit/B11.mp4,,,,,,,,,,,,,0,37,37,37,,2419.8282788847573,2420.328287866898,,,,,,,2430.9938524719328,None,0.5407407407407407,3.467979794833809,2430.9938524719328,None,2430.9938524719328,None,2423.610924653709,2424.111349716317,2426.0610043411143,2426.5943918041885,2429.3608030700125,2429.8605053657666,014,001,2021_Feb_19_1551,deception_task,2020.2.10,59.94880520088584,
3,Direct,TRUTH,Who is your closest friend back in secondary school?,,,bit/B14.mp4,,,,,,,,,,,,,0,38,38,38,,2435.160023071803,2435.6597965857945,,,,,,,2450.1752836210653,None,0.3,2.3499140893109143,2450.1752836210653,None,2450.1752836210653,None,2437.7597777228802,2438.259754945524,2440.0592806721106,2440.5926572280005,2448.0923361056484,2448.608924132772,014,001,2021_Feb_19_1551,deception_task,2020.2.10,59.94880520088584,
23,Indirect,TRUTH,Are you studying Business course in NTU?,,,bit/B39.mp4,,,,,,,,,,,,,0,39,39,39,,2453.24124884326,2453.741600442212,,,,,,,2465.8736624163575,None,0.7731481481481481,3.6665292563848197,2465.8736624163575,None,2465.8736624163575,None,2456.0412965146825,2456.5413362942636,2458.6744110397995,2459.20760281384,2463.940310625825,2464.4404986160807,014,001,2021_Feb_19_1551,deception_task,2020.2.10,59.94880520088584,
