item,style,condition,question,respond,video,bitalino,trials_3.thisRepN,trials_3.thisTrialN,trials_3.thisN,trials_3.thisIndex,Trialsloop.thisRepN,Trialsloop.thisTrialN,Trialsloop.thisN,Trialsloop.thisIndex,trials_2.thisRepN,trials_2.thisTrialN,trials_2.thisN,trials_2.thisIndex,trials.thisRepN,trials.thisTrialN,trials.thisN,trials.thisIndex,IDRESPONSE.text,sensor2.started,sensor2.stopped,sensor3.started,sensor3.stopped,sensor.started,sensor.stopped,sensor4.started,sensor4.stopped,textsubjresp.started,textsubjresp.stopped,SubjectiveResponse.response,SubjectiveResponse.rt,SubjectiveResponse.started,SubjectiveResponse.stopped,textsubjcon.started,textsubjcon.stopped,sensor5.started,sensor5.stopped,sensor1.started,sensor1.stopped,sensor6.started,sensor6.stopped,participant,session,date,expName,psychopyVersion,frameRate,
1,directx,TRUTH ,What is your favourite song?,"My favourite song is "Perfect" by Ed Sheeran",,,0,0,0,0,,,,,,,,,,,,,ID 015,,,,,,,,,,,,,,,,,,,,,,,015,001,2021_Feb_17_1057,deception_task,2020.2.10,60.013553804529465,
2,indirectx,LIE,What is your favourite tv-show/tv-drama?,"My favourite drama is F.R.I.E.N.D.S",,,0,1,1,1,,,,,,,,,,,,,,,,,,,,,,,,,,,,,,,,,,,,015,001,2021_Feb_17_1057,deception_task,2020.2.10,60.013553804529465,
3,directx,TRUTH ,Is George Washington your role model in life?,""No, my role model is Lee Kuan Yew"",,,0,2,2,2,,,,,,,,,,,,,,,,,,,,,,,,,,,,,,,,,,,,015,001,2021_Feb_17_1057,deception_task,2020.2.10,60.013553804529465,
4,indirectx,LIE,Is MacDonalds your favourite restaurant?,""Yes, MacDonalds is my favourite restaurant"",,,0,3,3,3,,,,,,,,,,,,,,,,,,,,,,,,,,,,,,,,,,,,015,001,2021_Feb_17_1057,deception_task,2020.2.10,60.013553804529465,
5,directx,TRUTH ,Who is your favourite celebrity?,"My favourite celebrity is Chris Hemsworth",,,0,4,4,4,,,,,,,,,,,,,,,,,,,,,,,,,,,,,,,,,,,,015,001,2021_Feb_17_1057,deception_task,2020.2.10,60.013553804529465,
1,directx,TRUTH ,What is your favourite song?,"My favourite song is "Perfect" by Ed Sheeran",,,,,,,0,0,0,0,,,,,,,,,,,,,,,,,,,,,,,,,,,,,,,,015,001,2021_Feb_17_1057,deception_task,2020.2.10,60.013553804529465,
2,indirectx,LIE,What is your favourite tv-show/tv-drama?,"My favourite drama is F.R.I.E.N.D.S",,,,,,,0,1,1,1,,,,,,,,,,,,,,,,,,,,,,,,,,,,,,,,015,001,2021_Feb_17_1057,deception_task,2020.2.10,60.013553804529465,
3,directx,TRUTH ,Is George Washington your role model in life?,""No, my role model is Lee Kuan Yew"",,,,,,,0,2,2,2,,,,,,,,,,,,,,,,,,,,,,,,,,,,,,,,015,001,2021_Feb_17_1057,deception_task,2020.2.10,60.013553804529465,
4,indirectx,LIE,Is MacDonalds your favourite restaurant?,""Yes, MacDonalds is my favourite restaurant"",,,,,,,0,3,3,3,,,,,,,,,,,,,,,,,,,,,,,,,,,,,,,,015,001,2021_Feb_17_1057,deception_task,2020.2.10,60.013553804529465,
5,directx,TRUTH ,Who is your favourite celebrity?,"My favourite celebrity is Chris Hemsworth",,,,,,,0,4,4,4,,,,,,,,,,,,,,,,,,,,,,,,,,,,,,,,015,001,2021_Feb_17_1057,deception_task,2020.2.10,60.013553804529465,
22,Indirect,LIE,Are you in your 3rd year in NTU?,,video/V4.mp4,,,,,,,,,,0,0,0,0,,,,,,352.9375350475311,353.4709687065333,357.1872251527384,357.68710549362004,362.4865513406694,363.0200510844588,365.020000718534,365.5196202476509,367.16953902039677,None,None,None,367.16953902039677,None,367.16953902039677,None,,,,,,,015,001,2021_Feb_17_1057,deception_task,2020.2.10,60.013553804529465,
8,Indirect,TRUTH,Is your favourite food Fried Chicken?,,video/V13.mp4,,,,,,,,,,0,1,1,1,,,,,,374.30207096925005,374.801926929038,378.18516752915457,378.6850562109612,381.4846826689318,382.017811245285,389.2002096120268,389.7002814714797,391.6000751317479,None,None,None,391.6000751317479,None,391.6000751317479,None,,,,,,,015,001,2021_Feb_17_1057,deception_task,2020.2.10,60.013553804529465,
14,Direct,TRUTH,"What is your favourite flavour?(E.g. chocolate, vanilla, milktea; it can be a complicated flavour)",,video/V7.mp4,,,,,,,,,,0,2,2,2,,,,,,393.933105093427,394.4330110982992,401.5826613600366,402.0826074653305,404.7823381200433,405.31522930273786,410.2483963109553,410.74837898788974,411.8651608438231,None,None,None,411.8651608438231,None,411.8651608438231,None,,,,,,,015,001,2021_Feb_17_1057,deception_task,2020.2.10,60.013553804529465,
6,Indirect,TRUTH,Were you in the Basketball CCA during secondary school?,,video/V36.mp4,,,,,,,,,,0,3,3,3,,,,,,415.7478108475916,416.2477710680105,421.8306294004433,422.3305299519561,425.59693063097075,426.13009962812066,431.21289283782244,431.71302917879075,433.6295568314381,None,None,None,433.6295568314381,None,433.6295568314381,None,,,,,,,015,001,2021_Feb_17_1057,deception_task,2020.2.10,60.013553804529465,
9,Direct,TRUTH,What is your favourite drink?,,video/V17.mp4,,,,,,,,,,0,4,4,4,,,,,,437.9789569959976,438.4957753592171,441.1456469739787,441.64548978116363,444.3615223080851,444.87841349327937,448.5112030459568,449.01120144175366,450.4610924972221,None,None,None,450.4610924972221,None,450.4610924972221,None,,,,,,,015,001,2021_Feb_17_1057,deception_task,2020.2.10,60.013553804529465,
16,Indirect,TRUTH,Do you have 1 sibling?,,video/V37.mp4,,,,,,,,,,0,5,5,5,,,,,,453.2107059308328,453.7106161066331,454.97741650464013,455.47759872023016,458.47702769283205,459.0101716676727,462.3098757597618,462.8096537645906,464.30976283736527,None,None,None,464.30976283736527,None,464.30976283736527,None,,,,,,,015,001,2021_Feb_17_1057,deception_task,2020.2.10,60.013553804529465,
7,Indirect,LIE,Is your favourite sport Floorball?,,video/V21.mp4,,,,,,,,,,0,6,6,6,,,,,,466.70948912901804,467.209538212046,471.4591304725036,471.958781119436,474.64236934063956,475.17547225253657,478.5417623189278,479.04142098594457,480.57488640397787,None,None,None,480.57488640397787,None,480.57488640397787,None,,,,,,,015,001,2021_Feb_17_1057,deception_task,2020.2.10,60.013553804529465,
7,Indirect,TRUTH,Is your favourite sport Table Tennis?,,video/V16.mp4,,,,,,,,,,0,7,7,7,,,,,,484.107468333561,484.607353807427,487.10752030368894,487.6073804339394,490.74025531997904,491.273816016037,495.8066253941506,496.30656989570707,497.92312013264745,None,None,None,497.92312013264745,None,497.92312013264745,None,,,,,,,015,001,2021_Feb_17_1057,deception_task,2020.2.10,60.013553804529465,
13,Direct,TRUTH,What is your dream job growing up?,,video/V33.mp4,,,,,,,,,,0,8,8,8,,,,,,500.289614549838,500.82296993304044,502.8391405972652,503.33893881272525,505.9554537613876,506.4889554302208,510.55522669805214,511.0552812339738,512.288272314705,None,None,None,512.288272314705,None,512.288272314705,None,,,,,,,015,001,2021_Feb_17_1057,deception_task,2020.2.10,60.013553804529465,
6,Indirect,LIE,Were you in the Chinese Orchestra CCA during secondary school?,,video/V19.mp4,,,,,,,,,,0,9,9,9,,,,,,515.621433484368,516.1210732236505,519.0875208680518,519.5873967176303,522.3206521389075,522.8539687050506,527.9197664689273,528.4197594113648,529.5698543046601,None,None,None,529.5698543046601,None,529.5698543046601,None,,,,,,,015,001,2021_Feb_17_1057,deception_task,2020.2.10,60.013553804529465,
28,Indirect,TRUTH,Is your religion Buddhism?,,video/V8.mp4,,,,,,,,,,0,10,10,10,,,,,,531.7864437433891,532.3031353899278,533.452809070237,533.9527898221277,536.5028560995124,537.0361165255308,540.1023816978559,540.6020721239038,542.5518807335757,None,None,None,542.5518807335757,None,542.5518807335757,None,,,,,,,015,001,2021_Feb_17_1057,deception_task,2020.2.10,60.013553804529465,
13,Direct,LIE,What is your dream job growing up?,,video/V11.mp4,,,,,,,,,,0,11,11,11,,,,,,545.4351749075577,545.9682646668516,550.1511506522074,550.651170541998,553.5674245506525,554.1006801640615,558.7001303737052,559.2001646994613,561.1170615954325,None,None,None,561.1170615954325,None,561.1170615954325,None,,,,,,,015,001,2021_Feb_17_1057,deception_task,2020.2.10,60.013553804529465,
9,Indirect,LIE,Is your favourite drink Milk Tea?,,video/V23.mp4,,,,,,,,,,0,12,12,12,,,,,,563.2833563452587,563.8167393174954,566.0828907336108,566.5828875256702,569.4659391734749,569.9993596794084,573.7484312783927,574.2484938348643,576.2487212833948,None,None,None,576.2487212833948,None,576.2487212833948,None,,,,,,,015,001,2021_Feb_17_1057,deception_task,2020.2.10,60.013553804529465,
10,Indirect,LIE,Do you hate eating Bittergourd the most?,,video/V25.mp4,,,,,,,,,,0,13,13,13,,,,,,578.6318396581337,579.1315008909442,583.3981784223579,583.8978560161777,586.563989403192,587.0974358939566,591.730211331509,592.2300865394063,594.1135019767098,None,None,None,594.1135019767098,None,594.1135019767098,None,,,,,,,015,001,2021_Feb_17_1057,deception_task,2020.2.10,60.013553804529465,
29,Direct,LIE,What brand of handphone do you use?,,video/V27.mp4,,,,,,,,,,0,14,14,14,,,,,,596.3966376106255,596.9134001540951,599.2628837269731,599.7627894114703,602.6623726254329,603.1958447806537,606.628830535803,607.1288314978592,609.0786240673624,None,None,None,609.0786240673624,None,609.0786240673624,None,,,,,,,015,001,2021_Feb_17_1057,deception_task,2020.2.10,60.013553804529465,
20,Direct,TRUTH,Which floor of the building is your house on?,,video/V35.mp4,,,,,,,,,,0,15,15,15,,,,,,611.5784296616912,612.0782622029074,614.328115596436,614.8276748144999,618.1444580820389,618.6775305178016,622.0105595169589,622.5105566298589,624.394062853884,None,None,None,624.394062853884,None,624.394062853884,None,,,,,,,015,001,2021_Feb_17_1057,deception_task,2020.2.10,60.013553804529465,
1,Direct,LIE,Which primary school are you from?,,video/V39.mp4,,,,,,,,,,0,16,16,16,,,,,,628.8432895289734,629.3431008975022,631.2767340308055,631.7764889379032,634.5591353490017,635.0929812383838,637.9593412396498,638.4590358361602,640.2588621540926,None,None,None,640.2588621540926,None,640.2588621540926,None,,,,,,,015,001,2021_Feb_17_1057,deception_task,2020.2.10,60.013553804529465,
8,Indirect,LIE,Is your favourite food Sushi?,,video/V29.mp4,,,,,,,,,,0,17,17,17,,,,,,644.5751796169207,645.0918725468218,648.5081031364389,649.007984760683,651.5412230510265,652.0743426447734,654.8571805744432,655.357277777046,656.5073316078633,None,None,None,656.5073316078633,None,656.5073316078633,None,,,,,,,015,001,2021_Feb_17_1057,deception_task,2020.2.10,60.013553804529465,
14,Indirect,LIE,Is your favourite flavour Cookies and Cream?,,video/V12.mp4,,,,,,,,,,0,18,18,18,,,,,,660.2070513553917,660.7069028238766,664.072793492116,664.5727309356444,667.3730984465219,667.9062841250561,671.4391958392225,671.9391599092633,673.9390373630449,None,None,None,673.9390373630449,None,673.9390373630449,None,,,,,,,015,001,2021_Feb_17_1057,deception_task,2020.2.10,60.013553804529465,
22,Direct,TRUTH,"Which year in NTU are you currently in? (Eg. 1, 2, 3, 4)",,video/V24.mp4,,,,,,,,,,0,19,19,19,,,,,,676.0885490383953,676.6052451762371,678.8217200888321,679.3214268758893,682.4379546563141,682.9713639342226,686.2044778820127,686.704214503523,688.0374016580172,None,None,None,688.0374016580172,None,688.0374016580172,None,,,,,,,015,001,2021_Feb_17_1057,deception_task,2020.2.10,60.013553804529465,
29,Direct,TRUTH,What brand of handphone do you use?,,video/V1.mp4,,,,,,,,,,0,20,20,20,,,,,,690.8038684222847,691.3203691914678,692.8535978579894,693.3536241636612,695.9867306686938,696.5201120367274,699.9530070051551,700.4694808269851,702.1028093267232,None,None,None,702.1028093267232,None,702.1028093267232,None,,,,,,,015,001,2021_Feb_17_1057,deception_task,2020.2.10,60.013553804529465,
23,Direct,LIE,What course are you studying?,,video/V10.mp4,,,,,,,,,,0,21,21,21,,,,,,705.4524953258224,705.9522476666607,707.7020940026268,708.2019117870368,711.3184735728428,711.8518286352046,717.7846488566138,718.2846164554358,719.567646545358,None,None,None,719.567646545358,None,719.567646545358,None,,,,,,,015,001,2021_Feb_17_1057,deception_task,2020.2.10,60.013553804529465,
12,Indirect,TRUTH,Was your favourite subject Biology back in secondary school?,,video/V3.mp4,,,,,,,,,,0,22,22,22,,,,,,721.9172539482825,722.4174531660974,724.1168126529083,724.6168222767301,727.2832783907652,727.8168195178732,732.2329663787968,732.7330562029965,734.0996074024588,None,None,None,734.0996074024588,None,734.0996074024588,None,,,,,,,015,001,2021_Feb_17_1057,deception_task,2020.2.10,60.013553804529465,
12,Direct,LIE,What was your favourite subject back in secondary school?,,video/V14.mp4,,,,,,,,,,0,23,23,23,,,,,,736.7994391098619,737.3158247112297,742.5656415331177,743.0654362197965,746.2984080524184,746.8317823628895,750.831089109648,751.3310628039762,752.4309416050091,None,None,None,752.4309416050091,None,752.4309416050091,None,,,,,,,015,001,2021_Feb_17_1057,deception_task,2020.2.10,60.013553804529465,
15,Indirect,TRUTH,Are you from Nanyang Junior College?,,video/V32.mp4,,,,,,,,,,0,24,24,24,,,,,,756.3970751841553,756.9141700789332,759.263677070383,759.7637688196264,762.8464279342443,763.3798920693807,766.846514550969,767.3463714732789,768.9125003046356,None,None,None,768.9125003046356,None,768.9125003046356,None,,,,,,,015,001,2021_Feb_17_1057,deception_task,2020.2.10,60.013553804529465,
10,Direct,TRUTH,What food do you hate the most?,,video/V5.mp4,,,,,,,,,,0,25,25,25,,,,,,771.6625978285447,772.1790289836936,774.9621841865592,775.4787067701109,778.478389496915,779.0118712764233,783.5113105145283,784.0109573113732,785.2777118352242,None,None,None,785.2777118352242,None,785.2777118352242,None,,,,,,,015,001,2021_Feb_17_1057,deception_task,2020.2.10,60.013553804529465,
1,Indirect,TRUTH,Are you from Evergren Primary School?,,video/V18.mp4,,,,,,,,,,0,26,26,26,,,,,,788.6941493423656,789.1940752370283,789.8940978213213,790.3941122577526,792.9937648931518,793.5270689479075,796.3932159370743,796.8933404078707,798.4766042344272,None,None,None,798.4766042344272,None,798.4766042344272,None,,,,,,,015,001,2021_Feb_17_1057,deception_task,2020.2.10,60.013553804529465,
5,Indirect,LIE,Is your favourite country Australia?,,video/V22.mp4,,,,,,,,,,0,27,27,27,,,,,,800.8763356590644,801.409626881592,803.0092095825821,803.5092856124975,806.1422596261837,806.6756114806049,810.4753595227376,810.9754701992497,812.4416964906268,None,None,None,812.4416964906268,None,812.4416964906268,None,,,,,,,015,001,2021_Feb_17_1057,deception_task,2020.2.10,60.013553804529465,
5,Direct,TRUTH,What is your favourite country you visited? ,,video/V30.mp4,,,,,,,,,,0,28,28,28,,,,,,815.0748350755312,815.6080172257498,817.474773096852,817.9746704399586,821.0074990661815,821.5408416176215,824.557144772727,825.056976351887,826.7070426936261,None,None,None,826.7070426936261,None,826.7070426936261,None,,,,,,,015,001,2021_Feb_17_1057,deception_task,2020.2.10,60.013553804529465,
20,Indirect,LIE,Is your house on the 14th floor of the building?,,video/V34.mp4,,,,,,,,,,0,29,29,29,,,,,,828.8236426548101,829.3232718077488,830.5065697031096,831.0067169512622,833.7232531369664,834.2564394576475,837.7559531219304,838.2557522999123,839.6223548273556,None,None,None,839.6223548273556,None,839.6223548273556,None,,,,,,,015,001,2021_Feb_17_1057,deception_task,2020.2.10,60.013553804529465,
19,Indirect,TRUTH,Is the Bedok station the closest MRT to your house?,,video/V20.mp4,,,,,,,,,,0,30,30,30,,,,,,842.0387406856753,842.5720296627842,845.5552757806145,846.0551481014118,848.8712551183999,849.4047664110549,853.3376350738108,853.8374987328425,855.3207037881948,None,None,None,855.3207037881948,None,855.3207037881948,None,,,,,,,015,001,2021_Feb_17_1057,deception_task,2020.2.10,60.013553804529465,
18,Direct,LIE,What was the last country you visited?,,video/V6.mp4,,,,,,,,,,0,31,31,31,,,,,,857.3871903140098,857.9203782384284,859.6203324920498,860.120063659735,862.7198234433308,863.2535034781322,866.55322361039,867.0531434100121,868.1364162187092,None,None,None,868.1364162187092,None,868.1364162187092,None,,,,,,,015,001,2021_Feb_17_1057,deception_task,2020.2.10,60.013553804529465,
16,Indirect,LIE,Do you have 2 siblings?,,video/V26.mp4,,,,,,,,,,0,32,32,32,,,,,,870.2861232622527,870.8026198609732,871.5691742044874,872.069228420034,875.2521942853928,875.7854553526267,877.8853072063066,878.3852395173162,880.1679828101769,None,None,None,880.1679828101769,None,880.1679828101769,None,,,,,,,015,001,2021_Feb_17_1057,deception_task,2020.2.10,60.013553804529465,
18,Indirect,TRUTH,Was the last country you visited Hong Kong?,,video/V2.mp4,,,,,,,,,,0,33,33,33,,,,,,882.5511146583594,883.0510620470159,885.2839876837097,885.7840951522812,888.6671195318922,889.2007386144251,892.5671900440939,893.0670213024132,894.1170599912293,None,None,None,894.1170599912293,None,894.1170599912293,None,,,,,,,015,001,2021_Feb_17_1057,deception_task,2020.2.10,60.013553804529465,
15,Direct,LIE,Which polytechnic or junior college are you from?,,video/V28.mp4,,,,,,,,,,0,34,34,34,,,,,,896.6668798928149,897.1834688829258,900.7829704205506,901.2828485160135,904.1988195772283,904.7325442032889,908.199012379162,908.6986848404631,910.698522193823,None,None,None,910.698522193823,None,910.698522193823,None,,,,,,,015,001,2021_Feb_17_1057,deception_task,2020.2.10,60.013553804529465,
28,Direct,LIE,What religion do you practice?,,video/V38.mp4,,,,,,,,,,0,35,35,35,,,,,,913.1482942318544,913.6816768832505,915.9813232310116,916.4813026995398,919.5975674227811,920.1309449411929,923.6972036976367,924.1972845396958,925.4140067906119,None,None,None,925.4140067906119,None,925.4140067906119,None,,,,,,,015,001,2021_Feb_17_1057,deception_task,2020.2.10,60.013553804529465,
2,Direct,TRUTH,Which secondary school did you attend?,,video/V31.mp4,,,,,,,,,,0,36,36,36,,,,,,927.4801423591562,927.9969398700632,929.7299328753725,930.229759321548,933.2631795066409,933.7959879222326,936.8627711897716,937.3624715609476,939.246100331191,None,None,None,939.246100331191,None,939.246100331191,None,,,,,,,015,001,2021_Feb_17_1057,deception_task,2020.2.10,60.013553804529465,
23,Indirect,TRUTH,Are you studying Biological Science in NTU?,,video/V15.mp4,,,,,,,,,,0,37,37,37,,,,,,943.9787821588106,944.4782371162437,945.4447691314854,945.9450341141783,949.244471619837,949.7781214993447,954.9774671914056,955.47745275544,956.8942078566179,None,None,None,956.8942078566179,None,956.8942078566179,None,,,,,,,015,001,2021_Feb_17_1057,deception_task,2020.2.10,60.013553804529465,
19,Indirect,LIE,Is the Woodlands station the closest MRT to your house?,,video/V9.mp4,,,,,,,,,,0,38,38,38,,,,,,959.1772414753214,959.6771917510778,961.3770892228931,961.8766141152009,964.5428697275929,965.0765372510068,968.8428423306905,969.3592888847925,971.1594645557925,None,None,None,971.1594645557925,None,971.1594645557925,None,,,,,,,015,001,2021_Feb_17_1057,deception_task,2020.2.10,60.013553804529465,
2,Indirect,LIE,Are you from Catholic High Secondary School?,,video/V40.mp4,,,,,,,,,,0,39,39,39,,,,,,974.6256292527542,975.1588097992353,977.7755576497875,978.2751835947856,981.2579302242957,981.7916789106093,985.2577695022337,985.7578715174459,987.2908060085028,None,None,None,987.2908060085028,None,987.2908060085028,None,,,,,,,015,001,2021_Feb_17_1057,deception_task,2020.2.10,60.013553804529465,
28,Direct,TRUTH,What religion do you practice?,,,bit/B22.mp4,,,,,,,,,,,,,0,0,0,0,,1054.53386738291,1055.0343043152243,,,,,,,1068.5996734877117,None,None,None,1068.5996734877117,None,1068.5996734877117,None,1058.2672267439775,1058.7671228041872,1060.5334827415645,1061.067061402835,1066.9830186692998,1067.4830382382497,015,001,2021_Feb_17_1057,deception_task,2020.2.10,60.013553804529465,
14,Direct,LIE,"What is your favourite flavour?(E.g. chocolate, vanilla, milktea; it can be a complicated flavour)",,,bit/B13.mp4,,,,,,,,,,,,,0,1,1,1,,1071.4492035768926,1071.9659423814155,,,,,,,1087.9308707076125,None,None,None,1087.9308707076125,None,1087.9308707076125,None,1079.581633189693,1080.081673931796,1081.9314686828293,1082.4650066019967,1086.197546634823,1086.6976165696979,015,001,2021_Feb_17_1057,deception_task,2020.2.10,60.013553804529465,
10,Direct,LIE,What food do you hate the most?,,,bit/B23.mp4,,,,,,,,,,,,,0,2,2,2,,1090.5472281426191,1091.0472005535848,,,,,,,1102.5294499401934,None,None,None,1102.5294499401934,None,1102.5294499401934,None,1092.5970762749203,1093.0970695381984,1095.1300794174895,1095.6636218284257,1100.6632015779614,1101.179629204329,015,001,2021_Feb_17_1057,deception_task,2020.2.10,60.013553804529465,
22,Direct,LIE,"Which year in NTU are you currently in? (Eg. 1, 2, 3, 4)",,,bit/B26.mp4,,,,,,,,,,,,,0,3,3,3,,1106.2289874721318,1106.7456168830395,,,,,,,1119.7777089476585,None,None,None,1119.7777089476585,None,1119.7777089476585,None,1108.1287705455907,1108.6288112876937,1110.4618117352948,1110.9786862391047,1117.427927349694,1117.9275856958702,015,001,2021_Feb_17_1057,deception_task,2020.2.10,60.013553804529465,
29,Indirect,LIE,Do you use a Xiaomi phone?,,,bit/B27.mp4,,,,,,,,,,,,,0,4,4,4,,1125.0104706548154,1125.5101533816196,,,,,,,1137.8260297421366,None,None,None,1137.8260297421366,None,1137.8260297421366,None,1127.3271320178173,1127.8269998473115,1129.759843166452,1130.293679752387,1135.7263129460625,1136.2261490165256,015,001,2021_Feb_17_1057,deception_task,2020.2.10,60.013553804529465,
18,Indirect,LIE,Was the last country you visited Australia?,,,bit/B35.mp4,,,,,,,,,,,,,0,5,5,5,,1141.0258081965148,1141.5589460758492,,,,,,,1152.1079055867158,None,None,None,1152.1079055867158,None,1152.1079055867158,None,1143.0588540057652,1143.558657353744,1145.2085389136337,1145.7419684021734,1150.2414259263314,1150.74128220696,015,001,2021_Feb_17_1057,deception_task,2020.2.10,60.013553804529465,
14,Indirect,TRUTH,Is your favourite flavour Strawberry?,,,bit/B25.mp4,,,,,,,,,,,,,0,6,6,6,,1154.274262251798,1154.807437023148,,,,,,,1164.989899229724,None,None,None,1164.989899229724,None,1164.989899229724,None,1157.3573252558708,1157.8572447346523,1159.4068266013637,1159.9403013228439,1163.106768985279,1163.6066849352792,015,001,2021_Feb_17_1057,deception_task,2020.2.10,60.013553804529465,
12,Direct,TRUTH,What was your favourite subject back in secondary school?,,,bit/B18.mp4,,,,,,,,,,,,,0,7,7,7,,1167.9730699593201,1168.473003232386,,,,,,,1179.5384914223105,None,None,None,1179.5384914223105,None,1179.5384914223105,None,1170.106128985528,1170.6061469502747,1172.6225652736612,1173.1559867416508,1177.0219803876244,1177.5219704424962,015,001,2021_Feb_17_1057,deception_task,2020.2.10,60.013553804529465,
20,Indirect,TRUTH,Is your house on the 8th floor of the building?,,,bit/B17.mp4,,,,,,,,,,,,,0,8,8,8,,1181.7214428517036,1182.2216083854437,,,,,,,1192.2872396530584,None,None,None,1192.2872396530584,None,1192.2872396530584,None,1183.5713274269365,1184.0712886098772,1185.6045352411456,1186.1376634966582,1189.8206473267637,1190.3205725802109,015,001,2021_Feb_17_1057,deception_task,2020.2.10,60.013553804529465,
5,Indirect,TRUTH,Is your favourite country Germany?,,,bit/B10.mp4,,,,,,,,,,,,,0,9,9,9,,1194.620167920366,1195.1200954192318,,,,,,,1205.4693133682013,None,None,None,1205.4693133682013,None,1205.4693133682013,None,1196.4533306942321,1196.9533416014165,1198.753247157205,1199.2866881946102,1203.5693528912961,1204.0689945551567,015,001,2021_Feb_17_1057,deception_task,2020.2.10,60.013553804529465,
6,Direct,LIE,What CCA (Co-curricular Activity) did you join in secondary school?,,,bit/B38.mp4,,,,,,,,,,,,,0,10,10,10,,1207.519042803906,1208.0189844178967,,,,,,,1220.13449301105,None,None,None,1220.13449301105,None,1220.13449301105,None,1211.3686941564083,1211.8685658355244,1213.4681703508832,1214.001832420472,1218.5511563625187,1219.0511175454594,015,001,2021_Feb_17_1057,deception_task,2020.2.10,60.013553804529465,
28,Indirect,LIE,Is your religion Catholicism?,,,bit/B37.mp4,,,,,,,,,,,,,0,11,11,11,,1222.5505279116333,1223.050623189658,,,,,,,1233.6163308084942,None,None,None,1233.6163308084942,None,1233.6163308084942,None,1224.3343102820218,1224.8340350342914,1227.0001604007557,1227.5171561674215,1231.9499523285776,1232.4498297823593,015,001,2021_Feb_17_1057,deception_task,2020.2.10,60.013553804529465,
1,Indirect,LIE,Are you from Clementi Primary School?,,,bit/B24.mp4,,,,,,,,,,,,,0,12,12,12,,1236.199380980339,1236.716147373896,,,,,,,1248.264820087701,None,None,None,1248.264820087701,None,1248.264820087701,None,1238.2994554708712,1238.7991802226752,1240.8822935926728,1241.415775692556,1246.3317403378896,1246.831671365071,015,001,2021_Feb_17_1057,deception_task,2020.2.10,60.013553804529465,
16,Direct,LIE,"How many siblings do you have? (Eg. 0, 1, 2, 3)",,,bit/B15.mp4,,,,,,,,,,,,,0,13,13,13,,1250.5647336635739,1251.0812212801538,,,,,,,1263.61362837255,None,None,None,1263.61362837255,None,1263.61362837255,None,1254.847655964084,1255.3474224205129,1257.2971200323664,1257.8308263728395,1261.097091352567,1261.5970765957609,015,001,2021_Feb_17_1057,deception_task,2020.2.10,60.013553804529465,
8,Direct,LIE,What is your favourite food?,,,bit/B11.mp4,,,,,,,,,,,,,0,14,14,14,,1265.9132182593457,1266.4466535220854,,,,,,,1276.1288196286187,None,None,None,1276.1288196286187,None,1276.1288196286187,None,1268.2798034637235,1268.7794595640153,1270.8957762573846,1271.4128733975813,1274.5788691602647,1275.0786814908497,015,001,2021_Feb_17_1057,deception_task,2020.2.10,60.013553804529465,
13,Indirect,LIE,Is your dream job an Engineer when you were growing up?,,,bit/B29.mp4,,,,,,,,,,,,,0,15,15,15,,1278.761944098398,1279.2617577123456,,,,,,,1289.6775128738955,None,None,None,1289.6775128738955,None,1289.6775128738955,None,1280.9615534897894,1281.4615034447052,1282.9279324826784,1283.444616750814,1287.8943310445175,1288.394448778592,015,001,2021_Feb_17_1057,deception_task,2020.2.10,60.013553804529465,
7,Direct,TRUTH,What is your favourite sport?,,,bit/B30.mp4,,,,,,,,,,,,,0,16,16,16,,1291.760458143428,1292.2602874771692,,,,,,,1303.1094281128608,None,None,None,1303.1094281128608,None,1303.1094281128608,None,1295.7600224944763,1296.2599849607795,1298.3767802901566,1298.9097734880634,1301.5428360430524,1302.0428216070868,015,001,2021_Feb_17_1057,deception_task,2020.2.10,60.013553804529465,
1,Direct,TRUTH,Which primary school are you from?,,,bit/B2.mp4,,,,,,,,,,,,,0,17,17,17,,1305.609412072692,1306.125856060069,,,,,,,1316.324766424019,None,None,None,1316.324766424019,None,1316.324766424019,None,1308.2590912063606,1308.7587938229553,1310.6751347687095,1311.2087612296455,1314.6081702481024,1315.1082687345333,015,001,2021_Feb_17_1057,deception_task,2020.2.10,60.013553804529465,
23,Indirect,LIE,Are you studying Economics in NTU?,,,bit/B21.mp4,,,,,,,,,,,,,0,18,18,18,,1320.4744805251248,1321.0075699635781,,,,,,,1330.4733115229756,None,None,None,1330.4733115229756,None,1330.4733115229756,None,1321.957412257325,1322.4576249490492,1324.4569230345078,1325.0071394476108,1328.8900730400346,1329.3899569096975,015,001,2021_Feb_17_1057,deception_task,2020.2.10,60.013553804529465,
19,Direct,LIE,Which MRT station is closest to your house?,,,bit/B5.mp4,,,,,,,,,,,,,0,19,19,19,,1332.6396646592766,1333.1566726164892,,,,,,,1342.5558365425095,None,None,None,1342.5558365425095,None,1342.5558365425095,None,1334.5063903750852,1335.0064529310912,1337.1727512101643,1337.7062214403413,1341.0053625255823,1341.5056368112564,015,001,2021_Feb_17_1057,deception_task,2020.2.10,60.013553804529465,
2,Direct,LIE,Which secondary school did you attend?,,,bit/B40.mp4,,,,,,,,,,,,,0,20,20,20,,1344.7218050369993,1345.238564693369,,,,,,,1355.4375244611874,None,None,None,1355.4375244611874,None,1355.4375244611874,None,1346.6387314465828,1347.1383339725435,1348.904754220508,1349.437894987408,1353.1045044441707,1353.6046032514423,015,001,2021_Feb_17_1057,deception_task,2020.2.10,60.013553804529465,
15,Direct,TRUTH,Which polytechnic or junior college are you from?,,,bit/B28.mp4,,,,,,,,,,,,,0,21,21,21,,1357.8039989885874,1358.320433031302,,,,,,,1366.1365054016933,None,None,None,1366.1365054016933,None,1366.1365054016933,None,1359.9540229849517,1360.453585731797,1361.9868240221404,1362.5200895806774,1364.5198303726502,1365.020084447693,015,001,2021_Feb_17_1057,deception_task,2020.2.10,60.013553804529465,
10,Indirect,TRUTH,Do you hate eating Pizza the most?,,,bit/B39.mp4,,,,,,,,,,,,,0,22,22,22,,1368.2364239818417,1368.7697899518535,,,,,,,1379.9017380406149,None,None,None,1379.9017380406149,None,1379.9017380406149,None,1371.686190245673,1372.186226496473,1373.9191502085887,1374.4522078870796,1377.3855195771903,1377.8855632063933,015,001,2021_Feb_17_1057,deception_task,2020.2.10,60.013553804529465,
29,Indirect,TRUTH,Do you use a Apple phone?,,,bit/B9.mp4,,,,,,,,,,,,,0,23,23,23,,1382.001563588623,1382.5180877763778,,,,,,,1391.2005637772381,None,None,None,1391.2005637772381,None,1391.2005637772381,None,1383.118195950985,1383.6180310589261,1385.4176241536625,1385.9510189951397,1388.9175234218128,1389.4173890058883,015,001,2021_Feb_17_1057,deception_task,2020.2.10,60.013553804529465,
6,Direct,TRUTH,What CCA (Co-curricular Activity) did you join in secondary school?,,,bit/B3.mp4,,,,,,,,,,,,,0,24,24,24,,1393.500089182984,1394.0002746065147,,,,,,,1402.4829205037095,None,None,None,1402.4829205037095,None,1402.4829205037095,None,1395.3168480694294,1395.8169013224542,1397.399631013628,1397.9167284746654,1400.6332508656196,1401.133116449695,015,001,2021_Feb_17_1057,deception_task,2020.2.10,60.013553804529465,
18,Direct,TRUTH,What was the last country you visited?,,,bit/B16.mp4,,,,,,,,,,,,,0,25,25,25,,1404.6992042185739,1405.216139995493,,,,,,,1414.747968682088,None,None,None,1414.747968682088,None,1414.747968682088,None,1406.6991012413055,1407.199081351515,1408.7988812350668,1409.3323453702033,1412.9984543761238,1413.5151001480408,015,001,2021_Feb_17_1057,deception_task,2020.2.10,60.013553804529465,
19,Direct,TRUTH,Which MRT station is closest to your house?,,,bit/B7.mp4,,,,,,,,,,,,,0,26,26,26,,1417.0813893801533,1417.5979960141703,,,,,,,1426.9637147327885,None,None,None,1426.9637147327885,None,1426.9637147327885,None,1418.364840041846,1418.8645538864657,1420.7643844387494,1421.2975842328742,1425.2139091384597,1425.7139842063189,015,001,2021_Feb_17_1057,deception_task,2020.2.10,60.013553804529465,
2,Indirect,TRUTH,Are you from Serangoon Secondary School?,,,bit/B6.mp4,,,,,,,,,,,,,0,27,27,27,,1429.1469904924743,1429.6467556655407,,,,,,,1439.879021412693,None,None,None,1439.879021412693,None,1439.879021412693,None,1431.379870255012,1431.8966087382287,1434.0631001400761,1434.5964677138254,1438.1293653124012,1438.6291279192083,015,001,2021_Feb_17_1057,deception_task,2020.2.10,60.013553804529465,
8,Direct,TRUTH,What is your favourite food?,,,bit/B19.mp4,,,,,,,,,,,,,0,28,28,28,,1442.245474446565,1442.7452052938752,,,,,,,1450.878072480671,None,None,None,1450.878072480671,None,1450.878072480671,None,1443.795575371012,1444.2950242334045,1446.4282930642366,1446.9620292391628,1448.9116735979915,1449.411292485427,015,001,2021_Feb_17_1057,deception_task,2020.2.10,60.013553804529465,
13,Indirect,TRUTH,Is your dream job a Doctor when you were growing up?,,,bit/B8.mp4,,,,,,,,,,,,,0,29,29,29,,1452.9944103467278,1453.527784657199,,,,,,,1463.4268571543507,None,None,None,1463.4268571543507,None,1463.4268571543507,None,1454.8109507672489,1455.3107576444745,1457.210541038774,1457.7440285924822,1461.576937932521,1462.0767294112593,015,001,2021_Feb_17_1057,deception_task,2020.2.10,60.013553804529465,
12,Indirect,LIE,Was your favourite subject History back in secondary school?,,,bit/B32.mp4,,,,,,,,,,,,,0,30,30,30,,1466.043301206082,1466.559618797619,,,,,,,1478.1586320749484,None,None,None,1478.1586320749484,None,1478.1586320749484,None,1468.992998497095,1469.4929744373076,1471.1927336431108,1471.7261961740442,1476.2922685444355,1476.7920571360737,015,001,2021_Feb_17_1057,deception_task,2020.2.10,60.013553804529465,
23,Direct,TRUTH,What course are you studying?,,,bit/B20.mp4,,,,,,,,,,,,,0,31,31,31,,1480.5083568906412,1481.0083950664848,,,,,,,1489.824114233721,None,None,None,1489.824114233721,None,1489.824114233721,None,1482.108209706843,1482.6080130552873,1484.3245575819165,1484.8415732383728,1487.8409428624436,1488.3408565670252,015,001,2021_Feb_17_1057,deception_task,2020.2.10,60.013553804529465,
16,Direct,TRUTH,"How many siblings do you have? (Eg. 0, 1, 2, 3)",,,bit/B33.mp4,,,,,,,,,,,,,0,32,32,32,,1492.04049611371,1492.5403780587949,,,,,,,1500.2396836508997,None,None,None,1500.2396836508997,None,1500.2396836508997,None,1493.2240342898294,1493.7237263200805,1495.656761157792,1496.189931759145,1498.2568048508838,1498.7567836781964,015,001,2021_Feb_17_1057,deception_task,2020.2.10,60.013553804529465,
9,Direct,LIE,What is your favourite drink?,,,bit/B36.mp4,,,,,,,,,,,,,0,33,33,33,,1502.4559003179893,1502.955765901599,,,,,,,1511.8216046001762,None,None,None,1511.8216046001762,None,1511.8216046001762,None,1503.7890403144993,1504.288944715634,1506.4055087468587,1506.922680634074,1509.9890019465238,1510.4887433801778,015,001,2021_Feb_17_1057,deception_task,2020.2.10,60.013553804529465,
9,Indirect,TRUTH,Is your favourite drink Apple Juice?,,,bit/B34.mp4,,,,,,,,,,,,,0,34,34,34,,1514.0885099004954,1514.621607359033,,,,,,,1522.7873564250767,None,None,None,1522.7873564250767,None,1522.7873564250767,None,1515.3883317271248,1515.8880436471663,1517.4381413632073,1517.9713944103569,1520.4375565410592,1520.9377403608523,015,001,2021_Feb_17_1057,deception_task,2020.2.10,60.013553804529465,
7,Direct,LIE,What is your favourite sport?,,,bit/B31.mp4,,,,,,,,,,,,,0,35,35,35,,1525.0373410265893,1525.5372335580178,,,,,,,1534.0360456281342,None,None,None,1534.0360456281342,None,1534.0360456281342,None,1526.3704059557058,1526.870313564781,1528.4368321704678,1528.9701333381236,1531.9699472729117,1532.4699585009366,015,001,2021_Feb_17_1057,deception_task,2020.2.10,60.013553804529465,
20,Direct,LIE,Which floor of the building is your house on?,,,bit/B4.mp4,,,,,,,,,,,,,0,36,36,36,,1536.1030467203818,1536.6027477327734,,,,,,,1550.1348513467237,None,None,None,1550.1348513467237,None,1550.1348513467237,None,1541.968991924543,1542.469152646605,1544.601767682936,1545.1352863539942,1548.168320614379,1548.6683238227852,015,001,2021_Feb_17_1057,deception_task,2020.2.10,60.013553804529465,
15,Indirect,LIE,Are you from Ngee Ann Polytechnic?,,,bit/B1.mp4,,,,,,,,,,,,,0,37,37,37,,1555.5008234987035,1556.0344576584175,,,,,,,1564.7162606166676,None,None,None,1564.7162606166676,None,1564.7162606166676,None,1556.6343249105848,1557.1341638681479,1558.5671387161128,1559.1005322746933,1562.6664743991569,1563.1665241234004,015,001,2021_Feb_17_1057,deception_task,2020.2.10,60.013553804529465,
5,Direct,LIE,What is your favourite country you visited? ,,,bit/B14.mp4,,,,,,,,,,,,,0,38,38,38,,1566.9165177075192,1567.4164179381914,,,,,,,1577.6821038704365,None,None,None,1577.6821038704365,None,1577.6821038704365,None,1569.3664215952158,1569.8662435500883,1571.6158470390365,1572.14940773556,1575.215801549144,1575.7322205142118,015,001,2021_Feb_17_1057,deception_task,2020.2.10,60.013553804529465,
22,Indirect,TRUTH,Are you in your 2nd year in NTU?,,,bit/B12.mp4,,,,,,,,,,,,,0,39,39,39,,1579.815170595888,1580.3316193954088,,,,,,,1589.0476127844304,None,None,None,1589.0476127844304,None,1589.0476127844304,None,1581.2316680932418,1581.7315529254265,1583.3312870445661,1583.8649138263427,1587.1310591469519,1587.6308965003118,015,001,2021_Feb_17_1057,deception_task,2020.2.10,60.013553804529465,
