Item,pic,correct,part,partimg,condition,parta.thisRepN,parta.thisTrialN,parta.thisN,parta.thisIndex,trialsA.thisRepN,trialsA.thisTrialN,trialsA.thisN,trialsA.thisIndex,partb.thisRepN,partb.thisTrialN,partb.thisN,partb.thisIndex,trialB.thisRepN,trialB.thisTrialN,trialB.thisN,trialB.thisIndex,partc.thisRepN,partc.thisTrialN,partc.thisN,partc.thisIndex,trialC.thisRepN,trialC.thisTrialN,trialC.thisN,trialC.thisIndex,textboxsubjectid.text,image_2.started,image_2.stopped,mouse_2.x,mouse_2.y,mouse_2.leftButton,mouse_2.midButton,mouse_2.rightButton,mouse_2.time,mouse_2.clicked_name,participant,session,date,expName,psychopyVersion,frameRate,
,,,,,,,,,,,,,,,,,,,,,,,,,,,,,,ID 020,,,,,,,,,,020,001,2021_Feb_22_1457,untitled,2020.2.10,59.995765817223244,
,,,,,,,,,,,,,,,,,,,,,,,,,,,,,,,,,,,,,,,,020,001,2021_Feb_22_1457,untitled,2020.2.10,59.995765817223244,
1,images/4,b,a,images/3,cognitive,0,0,0,0,,,,,,,,,,,,,,,,,,,,,,,,,,,,,,,020,001,2021_Feb_22_1457,untitled,2020.2.10,59.995765817223244,
1,images/4,b,a,images/3,cognitive,,,,,0,0,0,0,,,,,,,,,,,,,,,,,,57.220015603583306,None,0.38425925925925924,0.0962962962962963,1,0,0,2.5593721005134284,b,020,001,2021_Feb_22_1457,untitled,2020.2.10,59.995765817223244,
2,images/5,a,b,images/28,physical,,,,,0,1,1,1,,,,,,,,,,,,,,,,,,59.786610239651054,None,-0.35185185185185186,0.10185185185185185,1,0,0,2.389821531716734,a,020,001,2021_Feb_22_1457,untitled,2020.2.10,59.995765817223244,
3,images/6,a,c,images/61,affect,,,,,0,2,2,2,,,,,,,,,,,,,,,,,,62.1860112384893,None,-0.35185185185185186,0.10185185185185185,1,0,0,2.024935294408351,a,020,001,2021_Feb_22_1457,untitled,2020.2.10,59.995765817223244,
4,images/7,d,None,None,affect,,,,,0,3,3,3,,,,,,,,,,,,,,,,,,64.21915392950177,None,-0.34814814814814815,-0.37592592592592594,1,0,0,2.3577811154536903,d,020,001,2021_Feb_22_1457,untitled,2020.2.10,59.995765817223244,
5,images/8,b,None,None,cognitive,,,,,0,4,4,4,,,,,,,,,,,,,,,,,,66.58540165051818,None,0.387037037037037,0.1824074074074074,1,0,0,1.824839887674898,b,020,001,2021_Feb_22_1457,untitled,2020.2.10,59.995765817223244,
6,images/9,b,None,None,physical,,,,,0,5,5,5,,,,,,,,,,,,,,,,,,68.41868889518082,None,-0.33055555555555555,-0.3787037037037037,1,0,0,1.5578171736560762,d,020,001,2021_Feb_22_1457,untitled,2020.2.10,59.995765817223244,
7,images/10,c,None,None,physical,,,,,0,6,6,6,,,,,,,,,,,,,,,,,,69.98521263385192,None,0.4638888888888889,-0.4222222222222222,1,0,0,1.6911267461255193,c,020,001,2021_Feb_22_1457,untitled,2020.2.10,59.995765817223244,
8,images/11,c,None,None,cognitive,,,,,0,7,7,7,,,,,,,,,,,,,,,,,,71.68501514801756,None,0.39166666666666666,-0.40370370370370373,1,0,0,1.024977640248835,c,020,001,2021_Feb_22_1457,untitled,2020.2.10,59.995765817223244,
9,images/12,d,None,None,affect,,,,,0,8,8,8,,,,,,,,,,,,,,,,,,72.71824253117666,None,-0.20925925925925926,-0.3814814814814815,1,0,0,1.72402947768569,d,020,001,2021_Feb_22_1457,untitled,2020.2.10,59.995765817223244,
10,images/13,d,None,None,cognitive,,,,,0,9,9,9,,,,,,,,,,,,,,,,,,74.45132439862937,None,-0.27037037037037037,-0.387037037037037,1,0,0,1.3915086286142468,d,020,001,2021_Feb_22_1457,untitled,2020.2.10,59.995765817223244,
11,images/14,c,None,None,physical,,,,,0,10,10,10,,,,,,,,,,,,,,,,,,75.85131278587505,None,0.3990740740740741,-0.3685185185185185,1,0,0,1.7585577126592398,c,020,001,2021_Feb_22_1457,untitled,2020.2.10,59.995765817223244,
12,images/15,a,None,None,affect,,,,,0,11,11,11,,,,,,,,,,,,,,,,,,77.61771506862715,None,-0.3333333333333333,0.1962962962962963,1,0,0,1.6900594383478165,a,020,001,2021_Feb_22_1457,untitled,2020.2.10,59.995765817223244,
13,images/16,b,None,None,affect,,,,,0,12,12,12,,,,,,,,,,,,,,,,,,79.31746368855238,None,0.32685185185185184,0.16574074074074074,1,0,0,1.457237099763006,b,020,001,2021_Feb_22_1457,untitled,2020.2.10,59.995765817223244,
14,images/17,b,None,None,cognitive,,,,,0,13,13,13,,,,,,,,,,,,,,,,,,80.78417535265908,None,0.35555555555555557,0.14444444444444443,1,0,0,2.6904597990214825,b,020,001,2021_Feb_22_1457,untitled,2020.2.10,59.995765817223244,
15,images/18,d,None,None,physical,,,,,0,14,14,14,,,,,,,,,,,,,,,,,,83.48387200245634,None,-0.3990740740740741,-0.4305555555555556,1,0,0,1.5580747774802148,d,020,001,2021_Feb_22_1457,untitled,2020.2.10,59.995765817223244,
16,images/19,b,None,None,physical,,,,,0,15,15,15,,,,,,,,,,,,,,,,,,85.05039670364931,None,0.5203703703703704,0.2074074074074074,1,0,0,2.426385896746069,b,020,001,2021_Feb_22_1457,untitled,2020.2.10,59.995765817223244,
17,images/20,c,None,None,affect,,,,,0,16,16,16,,,,,,,,,,,,,,,,,,87.50060759903863,None,0.4361111111111111,-0.43148148148148147,1,0,0,2.2605396271683276,c,020,001,2021_Feb_22_1457,untitled,2020.2.10,59.995765817223244,
18,images/21,b,None,None,physical,,,,,0,17,17,17,,,,,,,,,,,,,,,,,,89.76698357611895,None,0.5009259259259259,0.12685185185185185,1,0,0,1.8251180229708552,b,020,001,2021_Feb_22_1457,untitled,2020.2.10,59.995765817223244,
19,images/22,a,None,None,physical,,,,,0,18,18,18,,,,,,,,,,,,,,,,,,91.61680174572393,None,-0.31574074074074077,0.03148148148148148,1,0,0,1.5269646872766316,a,020,001,2021_Feb_22_1457,untitled,2020.2.10,59.995765817223244,
20,images/23,d,None,None,affect,,,,,0,19,19,19,,,,,,,,,,,,,,,,,,93.16676889546216,None,-0.3648148148148148,-0.35185185185185186,1,0,0,1.506049683317542,d,020,001,2021_Feb_22_1457,untitled,2020.2.10,59.995765817223244,
21,images/24,d,None,None,cognitive,,,,,0,20,20,20,,,,,,,,,,,,,,,,,,94.68279936909676,None,-0.3277777777777778,-0.33240740740740743,1,0,0,2.527396807447076,d,020,001,2021_Feb_22_1457,untitled,2020.2.10,59.995765817223244,
22,images/25,a,None,None,cognitive,,,,,0,21,21,21,,,,,,,,,,,,,,,,,,97.2328733461909,None,-0.3472222222222222,0.14351851851851852,1,0,0,2.228909838013351,a,020,001,2021_Feb_22_1457,untitled,2020.2.10,59.995765817223244,
23,images/26,b,None,None,affect,,,,,0,22,22,22,,,,,,,,,,,,,,,,,,99.48265584232286,None,0.3990740740740741,0.17592592592592593,1,0,0,1.1935087009333074,b,020,001,2021_Feb_22_1457,untitled,2020.2.10,59.995765817223244,
24,images/27,d,None,None,cognitive,,,,,0,23,23,23,,,,,,,,,,,,,,,,,,100.6826062463224,None,-0.30462962962962964,-0.35185185185185186,1,0,0,1.4254350396804512,d,020,001,2021_Feb_22_1457,untitled,2020.2.10,59.995765817223244,
2,images/5,a,b,images/28,physical,,,,,,,,,0,0,0,0,,,,,,,,,,,,,,,,,,,,,,,020,001,2021_Feb_22_1457,untitled,2020.2.10,59.995765817223244,
25,images/29,b,None,None,affect,,,,,,,,,,,,,0,0,0,0,,,,,,,,,,103.28242505760863,None,0.43425925925925923,0.15555555555555556,1,0,0,3.726793507579714,b,020,001,2021_Feb_22_1457,untitled,2020.2.10,59.995765817223244,
26,images/30,b,None,None,affect,,,,,,,,,,,,,0,1,1,1,,,,,,,,,,107.0318864309229,None,0.43425925925925923,0.15185185185185185,1,0,0,3.858779130037874,b,020,001,2021_Feb_22_1457,untitled,2020.2.10,59.995765817223244,
27,images/31,d,None,None,affect,,,,,,,,,,,,,0,2,2,2,,,,,,,,,,110.91481841960922,None,-0.4638888888888889,-0.25462962962962965,1,0,0,2.5940578496083617,d,020,001,2021_Feb_22_1457,untitled,2020.2.10,59.995765817223244,
28,images/32,b,None,None,affect,,,,,,,,,,,,,0,3,3,3,,,,,,,,,,113.53116270154715,None,0.4324074074074074,0.05555555555555555,1,0,0,3.6599165657535195,b,020,001,2021_Feb_22_1457,untitled,2020.2.10,59.995765817223244,
29,images/33,c,None,None,affect,,,,,,,,,,,,,0,4,4,4,,,,,,,,,,117.21411252720281,None,0.4537037037037037,-0.3425925925925926,1,0,0,4.594925939571112,c,020,001,2021_Feb_22_1457,untitled,2020.2.10,59.995765817223244,
30,images/34,d,None,None,affect,,,,,,,,,,,,,0,5,5,5,,,,,,,,,,121.83046996220946,None,-0.40555555555555556,-0.2824074074074074,1,0,0,2.2707481873221695,d,020,001,2021_Feb_22_1457,untitled,2020.2.10,59.995765817223244,
31,images/35,d,None,None,affect,,,,,,,,,,,,,0,6,6,6,,,,,,,,,,124.11357447784394,None,-0.4203703703703704,-0.26296296296296295,1,0,0,3.261224219109863,d,020,001,2021_Feb_22_1457,untitled,2020.2.10,59.995765817223244,
32,images/36,d,None,None,affect,,,,,,,,,,,,,0,7,7,7,,,,,,,,,,127.39637006167322,None,-0.4148148148148148,-0.3787037037037037,1,0,0,3.760407457128167,d,020,001,2021_Feb_22_1457,untitled,2020.2.10,59.995765817223244,
33,images/37,b,None,None,affect,,,,,,,,,,,,,0,8,8,8,,,,,,,,,,131.17944987583905,None,0.4962962962962963,0.11944444444444445,1,0,0,4.594675072468817,b,020,001,2021_Feb_22_1457,untitled,2020.2.10,59.995765817223244,
34,images/38,b,None,None,affect,,,,,,,,,,,,,0,9,9,9,,,,,,,,,,135.7956988797523,None,0.4212962962962963,0.09074074074074075,1,0,0,2.434011359233409,b,020,001,2021_Feb_22_1457,untitled,2020.2.10,59.995765817223244,
35,images/39,c,None,None,affect,,,,,,,,,,,,,0,10,10,10,,,,,,,,,,138.22865736670792,None,0.4203703703703704,-0.13333333333333333,1,0,0,2.5601676893420517,c,020,001,2021_Feb_22_1457,untitled,2020.2.10,59.995765817223244,
36,images/40,c,None,None,cognitive,,,,,,,,,,,,,0,11,11,11,,,,,,,,,,140.81178068183362,None,0.4361111111111111,-0.27037037037037037,1,0,0,2.492771369405091,c,020,001,2021_Feb_22_1457,untitled,2020.2.10,59.995765817223244,
37,images/41,a,None,None,affect,,,,,,,,,,,,,0,12,12,12,,,,,,,,,,143.32815345097333,None,-0.44166666666666665,0.14537037037037037,1,0,0,2.8268134612590075,a,020,001,2021_Feb_22_1457,untitled,2020.2.10,59.995765817223244,
38,images/42,d,None,None,affect,,,,,,,,,,,,,0,13,13,13,,,,,,,,,,146.17808903427795,None,-0.4824074074074074,-0.19537037037037036,1,0,0,4.559961413964629,d,020,001,2021_Feb_22_1457,untitled,2020.2.10,59.995765817223244,
39,images/43,a,None,None,affect,,,,,,,,,,,,,0,14,14,14,,,,,,,,,,150.7437543068081,None,-0.40555555555555556,0.1425925925925926,1,0,0,9.05911770509556,a,020,001,2021_Feb_22_1457,untitled,2020.2.10,59.995765817223244,
40,images/44,d,None,None,cognitive,,,,,,,,,,,,,0,15,15,15,,,,,,,,,,159.82658505020663,None,-0.4287037037037037,-0.35462962962962963,1,0,0,2.2602579635567963,d,020,001,2021_Feb_22_1457,untitled,2020.2.10,59.995765817223244,
41,images/45,d,None,None,affect,,,,,,,,,,,,,0,16,16,16,,,,,,,,,,162.10975212277845,None,-0.39537037037037037,0.024074074074074074,1,0,0,16.29350619856268,a,020,001,2021_Feb_22_1457,untitled,2020.2.10,59.995765817223244,
42,images/46,c,None,None,affect,,,,,,,,,,,,,0,17,17,17,,,,,,,,,,178.42469077883288,None,0.46574074074074073,-0.4166666666666667,1,0,0,1.6936851418577135,c,020,001,2021_Feb_22_1457,untitled,2020.2.10,59.995765817223244,
43,images/47,b,None,None,affect,,,,,,,,,,,,,0,18,18,18,,,,,,,,,,180.1414050096646,None,0.3435185185185185,0.037037037037037035,1,0,0,1.6709367549046874,b,020,001,2021_Feb_22_1457,untitled,2020.2.10,59.995765817223244,
44,images/48,a,None,None,affect,,,,,,,,,,,,,0,19,19,19,,,,,,,,,,181.82434521103278,None,-0.37592592592592594,0.2101851851851852,1,0,0,3.1375489705242217,a,020,001,2021_Feb_22_1457,untitled,2020.2.10,59.995765817223244,
45,images/49,a,None,None,affect,,,,,,,,,,,,,0,20,20,20,,,,,,,,,,184.97369263553992,None,-0.46111111111111114,0.2,1,0,0,3.2271508807316422,a,020,001,2021_Feb_22_1457,untitled,2020.2.10,59.995765817223244,
46,images/50,d,None,None,affect,,,,,,,,,,,,,0,21,21,21,,,,,,,,,,188.20662148064002,None,-0.4824074074074074,-0.21944444444444444,1,0,0,2.724329106975347,d,020,001,2021_Feb_22_1457,untitled,2020.2.10,59.995765817223244,
47,images/51,c,None,None,affect,,,,,,,,,,,,,0,22,22,22,,,,,,,,,,190.95674531022087,None,0.3851851851851852,-0.36574074074074076,1,0,0,4.7268939185887575,c,020,001,2021_Feb_22_1457,untitled,2020.2.10,59.995765817223244,
48,images/52,c,None,None,affect,,,,,,,,,,,,,0,23,23,23,,,,,,,,,,195.68970238557085,None,0.3851851851851852,-0.36574074074074076,1,0,0,2.0264340811409056,c,020,001,2021_Feb_22_1457,untitled,2020.2.10,59.995765817223244,
49,images/53,d,None,None,affect,,,,,,,,,,,,,0,24,24,24,,,,,,,,,,197.7395020769909,None,-0.5444444444444444,-0.2935185185185185,1,0,0,1.493660632520914,d,020,001,2021_Feb_22_1457,untitled,2020.2.10,59.995765817223244,
50,images/54,c,None,None,affect,,,,,,,,,,,,,0,25,25,25,,,,,,,,,,199.25576962297782,None,0.4222222222222222,-0.2833333333333333,1,0,0,1.4273014655336738,c,020,001,2021_Feb_22_1457,untitled,2020.2.10,59.995765817223244,
51,images/55,a,None,None,affect,,,,,,,,,,,,,0,26,26,26,,,,,,,,,,200.70579156605527,None,-0.39351851851851855,0.08888888888888889,1,0,0,5.124323268420994,a,020,001,2021_Feb_22_1457,untitled,2020.2.10,59.995765817223244,
52,images/56,c,None,None,affect,,,,,,,,,,,,,0,27,27,27,,,,,,,,,,205.85525447921827,None,0.4101851851851852,-0.387037037037037,1,0,0,1.839307093527168,c,020,001,2021_Feb_22_1457,untitled,2020.2.10,59.995765817223244,
53,images/57,d,None,None,affect,,,,,,,,,,,,,0,28,28,28,,,,,,,,,,207.7051249393262,None,-0.5101851851851852,-0.29074074074074074,1,0,0,3.8272205591201782,d,020,001,2021_Feb_22_1457,untitled,2020.2.10,59.995765817223244,
54,images/58,d,None,None,cognitive,,,,,,,,,,,,,0,29,29,29,,,,,,,,,,211.5549020464532,None,-0.4759259259259259,-0.37222222222222223,1,0,0,1.9948046123608947,d,020,001,2021_Feb_22_1457,untitled,2020.2.10,59.995765817223244,
55,images/59,b,None,None,cognitive,,,,,,,,,,,,,0,30,30,30,,,,,,,,,,213.5711958981119,None,0.3648148148148148,0.0787037037037037,1,0,0,1.5942763155326247,b,020,001,2021_Feb_22_1457,untitled,2020.2.10,59.995765817223244,
56,images/60,b,None,None,affect,,,,,,,,,,,,,0,31,31,31,,,,,,,,,,215.18779136845842,None,0.4537037037037037,0.15925925925925927,1,0,0,4.428217996377498,b,020,001,2021_Feb_22_1457,untitled,2020.2.10,59.995765817223244,
3,images/6,a,c,images/61,affect,,,,,,,,,,,,,,,,,0,0,0,0,,,,,,,,,,,,,,,020,001,2021_Feb_22_1457,untitled,2020.2.10,59.995765817223244,
57,images/62,c,None,None,cognitive,,,,,,,,,,,,,,,,,,,,,0,0,0,0,,223.72027384955436,None,0.4981481481481482,-0.3194444444444444,1,0,0,3.794194960501045,c,020,001,2021_Feb_22_1457,untitled,2020.2.10,59.995765817223244,
58,images/63,d,None,None,cognitive,,,,,,,,,,,,,,,,,,,,,0,1,1,1,,227.536479994189,None,-0.44074074074074077,-0.3435185185185185,1,0,0,2.1929434477351606,d,020,001,2021_Feb_22_1457,untitled,2020.2.10,59.995765817223244,
59,images/64,b,None,None,cognitive,,,,,,,,,,,,,,,,,,,,,0,2,2,2,,229.75296838022768,None,0.30462962962962964,0.11666666666666667,1,0,0,9.69289276143536,b,020,001,2021_Feb_22_1457,untitled,2020.2.10,59.995765817223244,
60,images/65,c,None,None,physical,,,,,,,,,,,,,,,,,,,,,0,3,3,3,,239.46859669685364,None,0.44537037037037036,-0.3851851851851852,1,0,0,4.2261528661474586,c,020,001,2021_Feb_22_1457,untitled,2020.2.10,59.995765817223244,
61,images/66,a,None,None,affect,,,,,,,,,,,,,,,,,,,,,0,4,4,4,,243.7181530278176,None,-0.44166666666666665,0.0824074074074074,1,0,0,8.293344193603843,a,020,001,2021_Feb_22_1457,untitled,2020.2.10,59.995765817223244,
62,images/67,b,None,None,affect,,,,,,,,,,,,,,,,,,,,,0,5,5,5,,252.03398960875347,None,0.3675925925925926,0.17685185185185184,1,0,0,5.407235302962363,b,020,001,2021_Feb_22_1457,untitled,2020.2.10,59.995765817223244,
63,images/68,d,None,None,cognitive,,,,,,,,,,,,,,,,,,,,,0,6,6,6,,257.4501274866052,None,-0.3398148148148148,-0.3787037037037037,1,0,0,6.593845478724688,d,020,001,2021_Feb_22_1457,untitled,2020.2.10,59.995765817223244,
64,images/69,a,None,None,cognitive,,,,,,,,,,,,,,,,,,,,,0,7,7,7,,264.06607974879444,None,-0.3537037037037037,0.19907407407407407,1,0,0,4.892211826983839,a,020,001,2021_Feb_22_1457,untitled,2020.2.10,59.995765817223244,
65,images/70,a,None,None,physical,,,,,,,,,,,,,,,,,,,,,0,8,8,8,,268.9824267895892,None,-0.3537037037037037,0.1962962962962963,1,0,0,2.627476430963725,a,020,001,2021_Feb_22_1457,untitled,2020.2.10,59.995765817223244,
66,images/71,a,None,None,cognitive,,,,,,,,,,,,,,,,,,,,,0,9,9,9,,271.63203598884866,None,-0.362962962962963,0.11388888888888889,1,0,0,3.5704314270988107,a,020,001,2021_Feb_22_1457,untitled,2020.2.10,59.995765817223244,
67,images/72,c,None,None,cognitive,,,,,,,,,,,,,,,,,,,,,0,10,10,10,,275.2149344217032,None,0.5879629629629629,-0.387037037037037,1,0,0,3.0700288210064173,c,020,001,2021_Feb_22_1457,untitled,2020.2.10,59.995765817223244,
68,images/73,a,None,None,cognitive,,,,,,,,,,,,,,,,,,,,,0,11,11,11,,278.28136191982776,None,-0.4222222222222222,0.05740740740740741,1,0,0,7.4921271991916,a,020,001,2021_Feb_22_1457,untitled,2020.2.10,59.995765817223244,
69,images/74,c,None,None,cognitive,,,,,,,,,,,,,,,,,,,,,0,12,12,12,,285.79737635329366,None,0.5305555555555556,-0.44074074074074077,1,0,0,5.2047691703774035,c,020,001,2021_Feb_22_1457,untitled,2020.2.10,59.995765817223244,
70,images/75,d,None,None,cognitive,,,,,,,,,,,,,,,,,,,,,0,13,13,13,,291.01325874449685,None,-0.44074074074074077,-0.3574074074074074,1,0,0,3.9595269840210676,d,020,001,2021_Feb_22_1457,untitled,2020.2.10,59.995765817223244,
71,images/76,b,None,None,cognitive,,,,,,,,,,,,,,,,,,,,,0,14,14,14,,294.99634061194956,None,0.43333333333333335,0.06666666666666667,1,0,0,4.0937874130904675,b,020,001,2021_Feb_22_1457,untitled,2020.2.10,59.995765817223244,
72,images/77,a,None,None,cognitive,,,,,,,,,,,,,,,,,,,,,0,15,15,15,,299.11242857342586,None,-0.4537037037037037,0.15555555555555556,1,0,0,4.026671153958887,a,020,001,2021_Feb_22_1457,untitled,2020.2.10,59.995765817223244,
73,images/78,b,None,None,affect,,,,,,,,,,,,,,,,,,,,,0,16,16,16,,303.16233348753303,None,0.4425925925925926,0.2175925925925926,1,0,0,3.2929576272144914,b,020,001,2021_Feb_22_1457,untitled,2020.2.10,59.995765817223244,
74,images/79,a,None,None,cognitive,,,,,,,,,,,,,,,,,,,,,0,17,17,17,,306.46184349479154,None,-0.3435185185185185,0.08981481481481482,1,0,0,9.323301321826875,a,020,001,2021_Feb_22_1457,untitled,2020.2.10,59.995765817223244,
75,images/80,b,None,None,affect,,,,,,,,,,,,,,,,,,,,,0,18,18,18,,315.8109915088862,None,0.5296296296296297,0.15833333333333333,1,0,0,7.6600570771843195,b,020,001,2021_Feb_22_1457,untitled,2020.2.10,59.995765817223244,
76,images/81,a,None,None,affect,,,,,,,,,,,,,,,,,,,,,0,19,19,19,,323.493518196512,None,-0.45185185185185184,0.16203703703703703,1,0,0,5.27223093342036,a,020,001,2021_Feb_22_1457,untitled,2020.2.10,59.995765817223244,
77,images/82,d,None,None,physical,,,,,,,,,,,,,,,,,,,,,0,20,20,20,,328.7764263818972,None,-0.42685185185185187,-0.2935185185185185,1,0,0,2.828276318497956,d,020,001,2021_Feb_22_1457,untitled,2020.2.10,59.995765817223244,
78,images/83,d,None,None,affect,,,,,,,,,,,,,,,,,,,,,0,21,21,21,,331.6261325911619,None,-0.3907407407407407,-0.37777777777777777,1,0,0,4.503756270278245,d,020,001,2021_Feb_22_1457,untitled,2020.2.10,59.995765817223244,
79,images/84,b,None,None,cognitive,,,,,,,,,,,,,,,,,,,,,0,22,22,22,,336.142273100093,None,0.46296296296296297,0.18611111111111112,1,0,0,3.2039354061707854,b,020,001,2021_Feb_22_1457,untitled,2020.2.10,59.995765817223244,
80,images/85,c,None,None,cognitive,,,,,,,,,,,,,,,,,,,,,0,23,23,23,,339.35869315546006,None,0.462037037037037,-0.4203703703703704,1,0,0,5.227057527285069,c,020,001,2021_Feb_22_1457,untitled,2020.2.10,59.995765817223244,
81,images/86,a,None,None,physical,,,,,,,,,,,,,,,,,,,,,0,24,24,24,,344.6080213962123,None,-0.5157407407407407,0.19166666666666668,1,0,0,3.7717927182093263,a,020,001,2021_Feb_22_1457,untitled,2020.2.10,59.995765817223244,
82,images/87,d,None,None,affect,,,,,,,,,,,,,,,,,,,,,0,25,25,25,,348.39105790201575,None,-0.41388888888888886,-0.3296296296296296,1,0,0,2.7298247651197016,d,020,001,2021_Feb_22_1457,untitled,2020.2.10,59.995765817223244,
83,images/88,d,None,None,cognitive,,,,,,,,,,,,,,,,,,,,,0,26,26,26,,351.1407986939885,None,-0.41203703703703703,-0.362962962962963,1,0,0,2.994564652442932,d,020,001,2021_Feb_22_1457,untitled,2020.2.10,59.995765817223244,
84,images/89,c,None,None,affect,,,,,,,,,,,,,,,,,,,,,0,27,27,27,,354.15676115779206,None,0.45185185185185184,-0.3648148148148148,1,0,0,6.125553222838789,c,020,001,2021_Feb_22_1457,untitled,2020.2.10,59.995765817223244,
85,images/90,b,None,None,cognitive,,,,,,,,,,,,,,,,,,,,,0,28,28,28,,360.306090938393,None,0.4398148148148148,0.22037037037037038,1,0,0,7.922858358360827,b,020,001,2021_Feb_22_1457,untitled,2020.2.10,59.995765817223244,
86,images/91,c,None,None,cognitive,,,,,,,,,,,,,,,,,,,,,0,29,29,29,,368.239054558333,None,0.4324074074074074,-0.29074074074074074,1,0,0,9.357532494235784,c,020,001,2021_Feb_22_1457,untitled,2020.2.10,59.995765817223244,
87,images/92,d,None,None,cognitive,,,,,,,,,,,,,,,,,,,,,0,30,30,30,,377.6048393617384,None,-0.38333333333333336,-0.38796296296296295,1,0,0,7.025322181172669,d,020,001,2021_Feb_22_1457,untitled,2020.2.10,59.995765817223244,
88,images/93,b,None,None,cognitive,,,,,,,,,,,,,,,,,,,,,0,31,31,31,,384.6539493286982,None,0.43148148148148147,0.11388888888888889,1,0,0,6.1917879190295935,b,020,001,2021_Feb_22_1457,untitled,2020.2.10,59.995765817223244,
89,images/94,a,None,None,affect,,,,,,,,,,,,,,,,,,,,,0,32,32,32,,390.8529568957165,None,-0.36574074074074076,0.07962962962962963,1,0,0,5.393847595900297,a,020,001,2021_Feb_22_1457,untitled,2020.2.10,59.995765817223244,
90,images/95,b,None,None,cognitive,,,,,,,,,,,,,,,,,,,,,0,33,33,33,,396.2696032449603,None,0.3962962962962963,0.14351851851851852,1,0,0,2.1954829157330096,b,020,001,2021_Feb_22_1457,untitled,2020.2.10,59.995765817223244,
91,images/96,c,None,None,affect,,,,,,,,,,,,,,,,,,,,,0,34,34,34,,398.48601399734616,None,0.40185185185185185,-0.39351851851851855,1,0,0,5.092941137962043,c,020,001,2021_Feb_22_1457,untitled,2020.2.10,59.995765817223244,
92,images/97,c,None,None,affect,,,,,,,,,,,,,,,,,,,,,0,35,35,35,,403.6022293167189,None,0.42777777777777776,-0.387037037037037,1,0,0,1.9388596387580037,c,020,001,2021_Feb_22_1457,untitled,2020.2.10,59.995765817223244,
93,images/98,a,None,None,physical,,,,,,,,,,,,,,,,,,,,,0,36,36,36,,405.5519375153817,None,-0.5,0.1675925925925926,1,0,0,2.2357685836032033,a,020,001,2021_Feb_22_1457,untitled,2020.2.10,59.995765817223244,
94,images/99,b,None,None,cognitive,,,,,,,,,,,,,,,,,,,,,0,37,37,37,,407.78490068623796,None,0.44814814814814813,0.11666666666666667,1,0,0,4.224126039072871,b,020,001,2021_Feb_22_1457,untitled,2020.2.10,59.995765817223244,
95,images/100,d,None,None,cognitive,,,,,,,,,,,,,,,,,,,,,0,38,38,38,,412.03456320241094,None,-0.462037037037037,-0.35833333333333334,1,0,0,2.8942793952301145,d,020,001,2021_Feb_22_1457,untitled,2020.2.10,59.995765817223244,
96,images/101,c,None,None,physical,,,,,,,,,,,,,,,,,,,,,0,39,39,39,,414.95105203799903,None,0.5203703703703704,-0.45,1,0,0,1.8933856412768364,c,020,001,2021_Feb_22_1457,untitled,2020.2.10,59.995765817223244,
97,images/102,b,None,None,affect,,,,,,,,,,,,,,,,,,,,,0,40,40,40,,416.8676640614867,None,0.4601851851851852,0.14722222222222223,1,0,0,3.394832137040794,b,020,001,2021_Feb_22_1457,untitled,2020.2.10,59.995765817223244,
98,images/103,c,None,None,cognitive,,,,,,,,,,,,,,,,,,,,,0,41,41,41,,420.28393924282864,None,0.36574074074074076,-0.38981481481481484,1,0,0,6.094487403519452,c,020,001,2021_Feb_22_1457,untitled,2020.2.10,59.995765817223244,
,,,,,,,,,,,,,,,,,,,,,,,,,,,,,,,,,,,,,,,,020,001,2021_Feb_22_1457,untitled,2020.2.10,59.995765817223244,
